date,time,Ax,Ay,Az,Gx,Gy,Gz
2025-02-07,14:24:33.50,-0.40,-0.96,-0.10,1.04,-2.26,0.06
2025-02-07,14:24:34.00,-0.40,-0.94,-0.05,-0.61,-10.44,-9.95
2025-02-07,14:24:34.50,-0.39,-0.89,-0.04,0.61,2.87,-2.14
2025-02-07,14:24:35.00,-0.35,-0.95,-0.09,-2.14,-0.73,-5.37
2025-02-07,14:24:35.50,-0.32,-0.95,-0.17,-13.85,-0.61,-2.69
2025-02-07,14:24:36.00,-0.33,-0.94,-0.19,3.66,1.10,2.20
2025-02-07,14:24:36.50,-0.32,-0.96,-0.13,5.31,2.99,-3.17
2025-02-07,14:24:37.00,-0.31,-0.95,-0.12,1.77,1.10,0.55
2025-02-07,14:24:37.50,-0.30,-0.95,-0.08,3.66,1.22,0.31
2025-02-07,14:24:38.00,-0.30,-0.98,-0.08,0.98,-1.46,0.12
2025-02-07,14:24:38.50,-0.32,-0.96,-0.06,1.40,-1.04,1.46
2025-02-07,14:24:39.00,-0.32,-0.96,-0.04,1.40,1.83,-1.04
2025-02-07,14:24:39.50,-0.33,-0.92,-0.04,-2.38,0.24,-9.46
2025-02-07,14:24:40.00,-0.30,-0.97,-0.02,-1.40,-2.14,-0.92
2025-02-07,14:24:40.50,-0.29,-1.01,-0.04,0.00,-0.61,-0.61
2025-02-07,14:24:41.00,-0.31,-0.99,0.00,3.85,0.31,0.18
2025-02-07,14:24:41.50,-0.34,-1.00,-0.05,-14.71,-19.96,3.72
2025-02-07,14:24:42.00,-0.29,-0.96,-0.20,-51.88,-6.10,-1.16
2025-02-07,14:24:42.50,-0.34,-0.93,-0.22,0.37,1.95,-2.26
2025-02-07,14:24:43.00,-0.33,-0.93,-0.22,2.56,-0.24,-1.89
2025-02-07,14:24:43.50,-0.33,-0.94,-0.22,2.44,-0.37,-0.61
2025-02-07,14:24:44.00,-0.32,-0.93,-0.20,-0.18,-0.73,-0.06
2025-02-07,14:24:44.50,-0.33,-0.93,-0.18,0.31,-1.04,0.55
2025-02-07,14:24:45.00,-0.33,-0.95,-0.21,1.34,-0.67,-0.18
2025-02-07,14:24:45.50,-0.33,-0.95,-0.06,0.98,-0.12,-4.39
2025-02-07,14:24:46.00,-0.31,-0.95,-0.12,2.93,0.85,2.20
2025-02-07,14:24:46.50,-0.32,-0.97,-0.10,-0.31,0.12,0.49
2025-02-07,14:24:47.00,-0.31,-0.95,-0.11,-0.61,-0.61,-0.67
2025-02-07,14:24:47.50,-0.31,-0.96,-0.12,0.31,-0.18,1.04
2025-02-07,14:24:48.00,-0.33,-0.96,-0.10,-0.31,-0.43,-0.73
2025-02-07,14:24:48.50,-0.32,-0.94,-0.09,1.34,0.24,-0.49
2025-02-07,14:24:49.00,-0.33,-0.96,-0.11,1.95,-0.79,0.79
2025-02-07,14:24:49.50,-0.33,-0.96,-0.12,0.12,0.67,0.00
2025-02-07,14:24:50.00,-0.33,-0.96,-0.10,0.67,0.43,-0.43
2025-02-07,14:24:50.50,-0.33,-0.94,-0.08,-0.12,-0.61,0.49
2025-02-07,14:24:51.00,-0.33,-0.95,-0.11,0.00,-1.10,0.00
2025-02-07,14:24:51.50,-0.34,-1.06,-0.35,7.51,-0.24,59.02
2025-02-07,14:24:52.00,-0.46,-0.98,0.04,53.65,-5.62,-9.46
2025-02-07,14:24:52.50,-0.33,-0.74,0.07,-26.00,7.87,74.83
2025-02-07,14:24:53.00,-0.81,-0.36,-0.39,92.53,-42.60,47.06
2025-02-07,14:24:53.50,-0.85,0.08,-0.61,-34.12,-116.39,30.88
2025-02-07,14:24:54.00,-0.83,-0.48,0.39,5.92,62.38,22.28
2025-02-07,14:24:54.50,-0.60,0.40,-0.57,153.08,122.74,135.01
2025-02-07,14:24:55.00,-0.37,-0.23,-1.07,28.87,-8.24,-26.00
2025-02-07,14:24:55.50,-0.51,-0.42,-0.71,-0.12,30.46,23.44
2025-02-07,14:24:56.00,2.51,-2.59,-1.78,-55.18,-281.49,635.07
2025-02-07,14:24:56.50,-0.15,-0.74,1.04,-36.38,35.52,33.08
2025-02-07,14:24:57.00,0.13,-0.72,0.48,-12.63,-11.54,-7.51
2025-02-07,14:24:57.50,0.31,-1.85,-0.70,-82.28,-280.33,204.28
2025-02-07,14:24:58.00,-0.73,-0.51,0.56,-19.17,-8.12,19.90
2025-02-07,14:24:58.50,-0.38,0.92,0.41,-43.27,4.76,-36.99
2025-02-07,14:24:59.00,0.45,0.02,-0.64,294.01,386.96,-125.12
2025-02-07,14:24:59.50,0.54,-1.75,2.16,-25.27,-196.47,-204.28
2025-02-07,14:25:0.00,0.06,-2.93,-0.17,16.66,224.12,400.88
2025-02-07,14:25:0.50,-0.67,-0.98,-1.50,-88.44,-99.79,4.09
2025-02-07,14:25:1.00,-0.46,0.96,-0.30,11.66,-29.54,21.97
2025-02-07,14:25:1.50,-0.77,0.27,-0.54,38.88,-5.98,-9.34
2025-02-07,14:25:2.00,-0.91,-0.22,-0.17,-29.48,-31.25,-78.37
2025-02-07,14:25:2.50,-0.76,-0.59,-0.27,-83.37,-34.55,-35.52
2025-02-07,14:25:3.00,-0.52,-0.55,-0.31,-14.95,-105.90,-18.68
2025-02-07,14:25:3.50,-0.45,-0.63,0.35,37.84,-122.13,212.40
2025-02-07,14:25:4.00,-0.04,0.67,0.90,12.39,16.24,-19.35
2025-02-07,14:25:4.50,-0.00,-0.93,-0.40,-11.54,-21.24,43.76
2025-02-07,14:25:5.00,-0.39,0.06,-0.41,-60.91,-101.50,-43.58
2025-02-07,14:25:5.50,-0.57,-0.45,-0.54,-26.73,-8.61,-51.82
2025-02-07,14:25:6.00,-0.11,-0.83,-0.14,-29.97,-47.18,-77.82
2025-02-07,14:25:6.50,-0.55,-0.46,-0.24,-33.45,-48.10,35.22
2025-02-07,14:25:7.00,-0.13,0.97,-0.30,12.45,32.96,160.95
2025-02-07,14:25:7.50,1.11,-4.00,-0.77,239.38,533.63,-305.11
2025-02-07,14:25:8.00,-0.05,-1.11,-0.44,-8.97,43.95,-24.66
2025-02-07,14:25:8.50,0.23,-0.83,-0.06,-29.42,46.63,-29.97
2025-02-07,14:25:9.00,-0.07,-1.29,0.09,0.37,6.10,-10.31
2025-02-07,14:25:9.50,0.06,-1.11,3.73,-218.32,-263.61,-46.88
2025-02-07,14:25:10.00,2.71,-2.09,-3.83,162.66,431.40,-725.83
2025-02-07,14:25:10.50,0.36,-0.76,-0.42,19.59,4.70,46.63
2025-02-07,14:25:11.00,0.28,-1.72,-1.10,10.25,-167.11,206.12
2025-02-07,14:25:11.50,-0.62,0.99,0.01,90.76,-74.22,-43.82
2025-02-07,14:25:12.00,0.71,-0.57,0.13,-36.50,-44.37,41.20
2025-02-07,14:25:12.50,0.55,-0.88,0.47,30.82,-81.18,-65.73
2025-02-07,14:25:13.00,1.39,1.53,-1.96,12.82,227.97,-107.42
2025-02-07,14:25:13.50,2.38,-1.80,-0.51,87.40,-253.85,736.57
2025-02-07,14:25:14.00,2.41,0.42,0.68,19.41,414.43,-550.78
2025-02-07,14:25:14.50,1.20,0.28,-0.93,126.46,-214.11,-101.38
2025-02-07,14:25:15.00,0.55,-0.92,0.67,-167.72,127.56,77.03
2025-02-07,14:25:15.50,0.32,-1.02,-0.39,-1.53,-27.71,83.98
2025-02-07,14:25:16.00,-0.74,-0.13,0.78,-253.48,-52.73,-47.79
2025-02-07,14:25:16.50,-0.89,-0.63,-0.28,74.83,47.67,-23.50
2025-02-07,14:25:17.00,-0.80,-0.70,-0.47,12.76,32.10,-5.13
2025-02-07,14:25:17.50,-0.76,-0.64,-0.20,7.81,15.38,-6.53
2025-02-07,14:25:18.00,-0.76,-0.75,-0.40,1.83,8.73,0.49
2025-02-07,14:25:18.50,-0.56,-1.37,-0.47,39.86,102.66,-23.19
2025-02-07,14:25:19.00,-0.46,-0.65,-0.30,-72.39,-59.45,90.64
2025-02-07,14:25:19.50,-0.58,-0.57,-0.62,120.85,26.67,-29.42
2025-02-07,14:25:20.00,-0.48,-0.70,-0.52,-1.04,28.56,0.00
2025-02-07,14:25:20.50,-0.02,-0.75,-0.81,-2.99,21.67,59.81
2025-02-07,14:25:21.00,-0.45,-0.32,-0.81,-9.95,-63.90,-9.70
2025-02-07,14:25:21.50,-0.90,-0.01,-0.14,-47.97,-99.18,-37.48
2025-02-07,14:25:22.00,-0.34,-1.00,-0.12,-109.37,-17.09,-161.74
2025-02-07,14:25:22.50,0.46,-0.76,-0.38,-139.28,40.22,-25.27
2025-02-07,14:25:23.00,4.00,-1.45,0.38,46.51,-826.78,444.27
2025-02-07,14:25:23.50,-0.16,0.60,-0.77,-7.26,2.50,20.14
2025-02-07,14:25:24.00,-0.11,0.68,-0.43,162.17,43.52,0.12
2025-02-07,14:25:24.50,0.22,-0.26,-0.85,94.73,28.50,35.16
2025-02-07,14:25:25.00,0.63,-0.32,-2.05,92.16,-35.40,-105.16
2025-02-07,14:25:25.50,2.19,-3.81,-2.44,105.41,450.93,450.01
2025-02-07,14:25:26.00,0.33,0.82,-1.19,-34.97,-16.30,-41.02
2025-02-07,14:25:26.50,0.16,-0.02,-0.98,-8.54,-8.97,5.37
2025-02-07,14:25:27.00,0.11,0.73,-1.03,-63.78,-103.82,-11.84
2025-02-07,14:25:27.50,-0.67,0.48,-0.49,8.48,-69.89,28.75
2025-02-07,14:25:28.00,-0.88,0.33,0.19,53.47,-74.04,38.27
2025-02-07,14:25:28.50,-0.42,0.78,0.46,4.82,-17.03,19.04
2025-02-07,14:25:29.00,-0.14,0.81,0.53,9.09,-11.47,43.21
2025-02-07,14:25:29.50,0.16,0.78,0.68,-25.70,8.12,-24.84
2025-02-07,14:25:30.00,-0.33,0.58,0.95,17.09,56.76,-45.72
2025-02-07,14:25:30.50,-0.77,0.64,0.18,22.58,91.86,-14.71
2025-02-07,14:25:31.00,-0.57,-0.04,-0.84,11.05,36.01,-77.76
2025-02-07,14:25:31.50,-0.59,-0.62,-0.71,37.66,-119.08,-48.52
2025-02-07,14:25:32.00,-0.83,-0.40,0.37,38.09,-27.59,49.68
2025-02-07,14:25:32.50,-0.82,0.05,-0.33,56.82,180.18,-33.02
2025-02-07,14:25:33.00,-0.46,-0.26,-0.44,-6.65,159.79,-27.22
2025-02-07,14:25:33.50,0.97,-0.27,-0.09,34.91,130.80,-24.05
2025-02-07,14:25:34.00,1.08,-0.21,0.44,17.46,2.20,60.06
2025-02-07,14:25:34.50,1.17,-0.73,-0.16,-74.16,44.80,-80.14
2025-02-07,14:25:35.00,4.00,1.07,0.23,105.53,473.08,899.60
2025-02-07,14:25:35.50,2.44,0.36,0.08,-42.85,216.06,-388.55
2025-02-07,14:25:36.00,0.17,0.69,1.10,-33.69,-108.40,53.89
2025-02-07,14:25:36.50,3.06,-0.70,2.95,-105.77,-262.02,-739.07
2025-02-07,14:25:37.00,0.72,-0.22,1.27,2.62,20.81,20.20
2025-02-07,14:25:37.50,0.70,0.45,-0.15,27.22,-20.14,-10.07
2025-02-07,14:25:38.00,2.92,0.47,1.09,-141.17,277.65,340.27
2025-02-07,14:25:38.50,2.02,1.60,-0.34,232.48,-78.86,-622.92
2025-02-07,14:25:39.00,4.00,1.34,-0.85,-456.60,-445.74,1247.25
2025-02-07,14:25:39.50,0.38,-0.83,0.35,-6.65,21.55,-17.76
2025-02-07,14:25:40.00,0.75,-0.86,-0.58,47.42,-143.62,5.31
2025-02-07,14:25:40.50,3.07,-0.10,1.09,451.97,-375.43,364.87
2025-02-07,14:25:41.00,4.00,-0.19,1.37,494.57,-838.81,158.75
2025-02-07,14:25:41.50,4.00,1.36,0.51,499.88,463.32,627.14
2025-02-07,14:25:42.00,4.00,-0.37,0.09,698.36,-899.96,-237.92
2025-02-07,14:25:42.50,4.00,0.20,1.14,979.74,-296.51,691.77
2025-02-07,14:25:43.00,4.00,1.07,-0.63,1322.08,845.83,19.47
2025-02-07,14:25:43.50,4.00,-0.06,0.78,305.30,-1012.33,-75.56
2025-02-07,14:25:44.00,4.00,0.63,0.71,842.22,85.08,789.37
2025-02-07,14:25:44.50,1.51,-0.21,0.46,-99.18,277.47,118.16
2025-02-07,14:25:45.00,2.87,0.19,-0.84,89.97,652.34,-144.71
2025-02-07,14:25:45.50,0.74,-0.15,-0.26,-57.62,163.09,-105.65
2025-02-07,14:25:46.00,0.81,-0.24,-0.35,8.12,18.43,-57.62
2025-02-07,14:25:46.50,3.73,0.60,0.37,-9.70,-705.14,497.50
2025-02-07,14:25:47.00,1.28,-0.14,0.55,-28.56,133.12,144.41
2025-02-07,14:25:47.50,0.96,-0.25,0.65,33.87,-76.48,-13.06
2025-02-07,14:25:48.00,1.00,-0.17,0.41,52.12,-41.93,22.34
2025-02-07,14:25:48.50,1.04,-0.15,0.64,94.36,32.35,39.25
2025-02-07,14:25:49.00,0.80,0.24,0.76,128.54,-19.53,90.27
2025-02-07,14:25:49.50,0.27,0.22,0.78,20.87,88.99,19.53
2025-02-07,14:25:50.00,0.75,0.39,-0.49,1204.65,136.54,-307.25
2025-02-07,14:25:50.50,0.85,0.01,-0.16,32.59,-71.78,217.53
2025-02-07,14:25:51.00,0.76,-0.28,0.38,137.57,-34.73,-82.76
2025-02-07,14:25:51.50,0.95,-0.29,0.16,86.18,74.46,36.13
2025-02-07,14:25:52.00,0.86,-0.23,0.63,42.79,53.83,-13.79
2025-02-07,14:25:52.50,0.74,0.08,0.75,61.65,-69.09,34.67
2025-02-07,14:25:53.00,0.57,-0.03,0.63,5.00,-12.76,55.18
2025-02-07,14:25:53.50,0.64,-0.08,0.83,0.85,60.00,-2.38
2025-02-07,14:25:54.00,0.50,0.11,0.92,32.90,13.79,47.06
2025-02-07,14:25:54.50,0.49,0.04,0.89,24.29,-51.76,66.89
2025-02-07,14:25:55.00,0.46,0.10,0.92,21.85,-0.18,80.38
2025-02-07,14:25:55.50,0.26,-0.05,0.94,-6.10,52.61,258.73
2025-02-07,14:25:56.00,3.66,-0.32,0.28,309.57,-256.90,-653.38
2025-02-07,14:25:56.50,1.64,0.21,-0.30,-249.33,289.61,143.55
2025-02-07,14:25:57.00,1.05,-0.19,-0.06,47.18,-54.08,69.46
2025-02-07,14:25:57.50,0.96,-0.06,-0.03,-52.25,11.17,-5.98
2025-02-07,14:25:58.00,1.26,-0.06,0.52,-166.02,-59.94,268.25
2025-02-07,14:25:58.50,1.96,-0.29,-0.48,-603.88,223.27,-103.15
2025-02-07,14:25:59.00,1.24,-0.21,-0.30,80.14,-71.53,-36.50
2025-02-07,14:25:59.50,0.85,-0.25,-0.08,91.61,-229.13,-223.63
2025-02-07,14:26:0.00,1.13,-0.41,0.09,200.07,52.61,-9.03
2025-02-07,14:26:0.50,1.06,-0.18,0.09,150.45,-118.35,-25.88
2025-02-07,14:26:1.00,1.26,0.10,0.10,-201.72,93.87,93.44
2025-02-07,14:26:1.50,1.08,-0.30,-0.04,-541.87,114.14,150.70
2025-02-07,14:26:2.00,1.49,0.24,-0.35,-222.60,329.65,-64.88
2025-02-07,14:26:2.50,1.11,-0.02,-0.33,-84.23,83.50,-77.15
2025-02-07,14:26:3.00,0.89,-0.22,-0.26,137.70,-104.86,14.34
2025-02-07,14:26:3.50,3.23,0.63,0.24,113.40,-505.31,-324.71
2025-02-07,14:26:4.00,1.53,-0.13,0.28,207.89,-149.84,-266.48
2025-02-07,14:26:4.50,1.70,0.32,0.36,-36.87,229.92,313.78
2025-02-07,14:26:5.00,2.55,0.44,-0.00,-70.80,522.03,-19.84
2025-02-07,14:26:5.50,1.17,-0.09,-0.29,-270.02,228.21,-24.84
2025-02-07,14:26:6.00,1.18,0.01,-0.26,159.12,-223.63,129.39
2025-02-07,14:26:6.50,1.18,-0.22,0.28,168.09,-145.69,-123.17
2025-02-07,14:26:7.00,1.17,-0.52,-0.10,34.06,-11.47,2.32
2025-02-07,14:26:7.50,0.61,0.37,0.79,136.54,-330.57,160.83
2025-02-07,14:26:8.00,0.52,0.16,0.47,63.84,64.88,-42.24
2025-02-07,14:26:8.50,0.53,1.22,0.05,110.41,77.21,38.15
2025-02-07,14:26:9.00,0.18,0.08,-0.96,26.55,32.17,-5.31
2025-02-07,14:26:9.50,0.21,0.35,-0.62,-106.32,-39.98,118.77
2025-02-07,14:26:10.00,0.65,0.03,-0.68,22.77,-28.93,63.84
2025-02-07,14:26:10.50,0.88,-0.08,-0.64,15.63,104.37,-33.81
2025-02-07,14:26:11.00,0.64,-0.14,-0.71,-3.36,20.20,6.04
2025-02-07,14:26:11.50,1.18,-0.22,-0.46,-20.63,85.27,114.38
2025-02-07,14:26:12.00,-0.15,-0.31,-0.27,-14.28,-233.89,-255.13
2025-02-07,14:26:12.50,0.32,-0.78,-0.62,-58.47,117.19,36.44
2025-02-07,14:26:13.00,0.50,-0.49,-0.77,31.19,-83.56,11.05
2025-02-07,14:26:13.50,-0.28,-0.18,1.22,-38.70,-189.15,57.01
2025-02-07,14:26:14.00,0.52,-0.56,0.84,-104.98,-50.66,34.36
2025-02-07,14:26:14.50,0.82,-0.82,-0.31,-47.55,42.42,-62.87
2025-02-07,14:26:15.00,0.55,-0.87,-0.04,35.10,54.93,96.31
2025-02-07,14:26:15.50,-0.33,-0.53,0.20,13.67,64.64,260.31
2025-02-07,14:26:16.00,-0.19,-0.88,-1.06,72.20,195.07,104.68
2025-02-07,14:26:16.50,0.36,-0.21,-0.95,-9.70,23.68,33.08
2025-02-07,14:26:17.00,0.30,-0.34,-0.47,59.14,-48.34,-193.85
2025-02-07,14:26:17.50,-0.62,-0.54,-0.15,-154.42,-291.44,-1.59
2025-02-07,14:26:18.00,0.59,-0.71,-0.55,45.96,172.12,83.44
2025-02-07,14:26:18.50,0.52,-0.97,-0.78,8.61,48.46,-39.18
2025-02-07,14:26:19.00,0.15,-1.07,0.15,82.15,86.61,52.86
2025-02-07,14:26:19.50,-0.60,-0.48,-0.10,312.07,296.02,72.69
2025-02-07,14:26:20.00,-0.13,-0.24,-0.88,7.20,83.31,117.25
2025-02-07,14:26:20.50,0.00,-0.13,-0.95,7.26,-11.66,-7.57
2025-02-07,14:26:21.00,-0.03,-0.31,-0.98,0.00,-16.85,-45.35
2025-02-07,14:26:21.50,-0.25,-0.23,-1.04,-25.39,-47.36,-6.84
2025-02-07,14:26:22.00,-0.70,0.30,-0.09,-503.66,-231.08,-102.48
2025-02-07,14:26:22.50,0.17,-0.92,-0.41,-8.61,-17.09,-3.91
2025-02-07,14:26:23.00,0.19,-0.89,-0.37,3.97,5.74,15.56
2025-02-07,14:26:23.50,0.40,-0.96,-0.37,-4.03,-52.25,-18.62
2025-02-07,14:26:24.00,-0.17,-0.97,0.13,229.37,174.50,147.28
2025-02-07,14:26:24.50,-0.50,0.38,-0.52,155.40,67.20,86.43
2025-02-07,14:26:25.00,-0.30,0.93,-0.23,-12.88,-6.16,4.03
2025-02-07,14:26:25.50,-0.41,0.82,-0.34,5.49,-12.27,-4.21
2025-02-07,14:26:26.00,-0.61,0.76,-0.07,-126.95,-14.65,-33.39
2025-02-07,14:26:26.50,-0.31,-1.01,-0.22,-15.32,-6.04,5.19
2025-02-07,14:26:27.00,-0.24,-0.99,0.03,109.56,64.27,44.43
2025-02-07,14:26:27.50,-0.86,0.15,-0.41,193.66,124.57,55.36
2025-02-07,14:26:28.00,-0.34,0.41,-0.75,-29.24,-37.78,13.06
2025-02-07,14:26:28.50,-0.46,0.57,-0.64,-42.48,0.85,-20.08
2025-02-07,14:26:29.00,-0.71,0.70,-0.21,-83.25,-10.25,-12.51
2025-02-07,14:26:29.50,-0.44,-0.74,-0.08,-86.73,23.01,-10.38
2025-02-07,14:26:30.00,-0.11,-1.33,-0.16,101.56,142.46,-59.14
2025-02-07,14:26:30.50,-0.07,-0.90,-0.43,7.02,-41.93,-38.94
2025-02-07,14:26:31.00,0.11,-1.07,-0.13,2.56,-58.65,-31.74
2025-02-07,14:26:31.50,0.03,-0.91,-0.26,5.00,3.36,8.42
2025-02-07,14:26:32.00,0.01,-1.02,-0.22,2.38,5.49,3.54
2025-02-07,14:26:32.50,0.06,-1.03,-0.19,0.06,-14.22,-2.20
2025-02-07,14:26:33.00,0.11,-1.02,-0.22,-27.34,-57.07,-6.90
2025-02-07,14:26:33.50,-0.02,-1.09,0.05,-17.27,-117.74,7.02
2025-02-07,14:26:34.00,-0.06,-1.30,-0.09,19.96,-41.44,-27.16
2025-02-07,14:26:34.50,-0.49,-0.88,0.09,-28.50,-29.24,-65.31
2025-02-07,14:26:35.00,-0.73,-0.63,0.05,74.22,71.90,-49.80
2025-02-07,14:26:35.50,-0.61,-0.64,-0.21,52.55,15.50,-30.52
2025-02-07,14:26:36.00,-0.23,-1.18,0.61,49.74,155.88,97.72
2025-02-07,14:26:36.50,-0.33,-0.82,0.14,-34.36,-52.19,15.38
2025-02-07,14:26:37.00,-0.35,-0.92,0.22,-4.03,-13.12,-0.49
2025-02-07,14:26:37.50,-0.42,-0.92,0.18,-0.18,2.56,13.92
2025-02-07,14:26:38.00,-0.46,-0.99,0.13,4.15,6.41,3.91
2025-02-07,14:26:38.50,-0.25,-1.04,0.22,5.13,7.32,-5.13
2025-02-07,14:26:39.00,0.44,-0.35,-0.24,-7.20,31.92,-48.16
2025-02-07,14:26:39.50,0.27,-0.51,-0.62,-24.41,3.36,-78.06
2025-02-07,14:26:40.00,0.23,-0.48,-0.49,-19.29,-3.60,54.57
2025-02-07,14:26:40.50,-0.72,0.49,-0.23,-91.49,-44.86,-122.74
2025-02-07,14:26:41.00,-0.89,0.38,-0.22,-36.13,-22.95,-115.42
2025-02-07,14:26:41.50,0.05,-0.90,-0.04,-13.98,-69.21,-99.30
2025-02-07,14:26:42.00,-0.10,-0.95,-0.44,-29.79,-162.78,-8.54
2025-02-07,14:26:42.50,-0.96,0.01,-0.44,-39.73,-76.35,186.77
2025-02-07,14:26:43.00,-0.21,1.09,-0.73,1.77,39.00,73.97
2025-02-07,14:26:43.50,0.15,-0.38,-1.08,113.34,-1.46,68.30
2025-02-07,14:26:44.00,-0.05,-0.88,-1.04,26.18,-20.94,59.88
2025-02-07,14:26:44.50,-0.07,-0.74,-0.57,-9.77,-67.50,-19.84
2025-02-07,14:26:45.00,-0.01,1.56,-0.27,-143.49,-129.27,-90.82
2025-02-07,14:26:45.50,-0.56,-0.59,0.66,-8.85,1.77,20.45
2025-02-07,14:26:46.00,-0.38,-0.34,0.94,-17.64,-32.29,20.08
2025-02-07,14:26:46.50,-0.33,-0.58,0.87,-77.45,9.58,11.05
2025-02-07,14:26:47.00,0.12,-0.92,0.25,-24.11,261.66,-91.61
2025-02-07,14:26:47.50,0.18,-0.79,-0.18,-8.97,-2.14,53.04
2025-02-07,14:26:48.00,0.13,-0.98,-0.13,-7.26,-12.08,57.43
2025-02-07,14:26:48.50,-0.33,-0.84,-0.25,43.76,119.14,157.23
2025-02-07,14:26:49.00,0.32,0.17,-1.55,25.15,76.66,277.53
2025-02-07,14:26:49.50,-0.49,0.79,-0.26,-12.63,-38.51,84.90
2025-02-07,14:26:50.00,-0.38,0.76,-0.50,-48.52,90.45,-112.00
2025-02-07,14:26:50.50,-0.41,0.58,-0.94,27.10,10.31,-47.79
2025-02-07,14:26:51.00,0.15,-0.02,-0.33,-193.73,40.16,-432.19
2025-02-07,14:26:51.50,0.49,-0.42,-0.77,24.78,-52.06,110.60
2025-02-07,14:26:52.00,0.22,-0.96,-0.12,29.11,-136.66,49.99
2025-02-07,14:26:52.50,-0.68,-0.65,0.09,11.78,-76.66,101.87
2025-02-07,14:26:53.00,-0.35,-0.04,0.96,32.10,-22.64,41.32
2025-02-07,14:26:53.50,-0.54,0.05,0.96,12.27,16.60,-14.47
2025-02-07,14:26:54.00,-0.75,-0.02,0.52,135.44,69.64,-221.80
2025-02-07,14:26:54.50,-0.74,-0.76,-0.07,-0.67,12.39,11.90
2025-02-07,14:26:55.00,-0.27,-1.07,-0.23,150.27,260.99,-64.70
2025-02-07,14:26:55.50,-0.54,-0.69,0.22,282.59,209.47,195.19
2025-02-07,14:26:56.00,-0.37,-0.27,-0.99,-53.04,-107.54,2.32
2025-02-07,14:26:56.50,-0.25,-0.49,-0.47,-103.21,-252.38,149.66
2025-02-07,14:26:57.00,-0.68,-0.92,0.57,-11.78,-78.31,31.68
2025-02-07,14:26:57.50,-0.46,-0.91,-0.21,183.96,231.38,47.79
2025-02-07,14:26:58.00,-0.66,-0.09,-0.97,31.37,41.93,-11.23
2025-02-07,14:26:58.50,-0.77,-0.07,-0.63,-61.77,-44.37,-31.92
2025-02-07,14:26:59.00,-0.45,-0.90,-0.06,-166.75,-169.80,78.67
2025-02-07,14:26:59.50,-0.89,-0.57,0.44,-44.62,-70.92,-38.27
2025-02-07,14:27:0.00,-0.35,-1.24,-0.13,306.52,262.63,10.25
2025-02-07,14:27:0.50,-0.91,-0.20,-0.39,-65.43,-40.71,-46.02
2025-02-07,14:27:1.00,-0.18,-1.32,-0.26,-199.16,-209.96,134.58
2025-02-07,14:27:1.50,-0.99,-0.31,0.25,5.19,-41.14,-3.97
2025-02-07,14:27:2.00,-0.27,-0.57,-0.18,-17.27,119.93,-77.82
2025-02-07,14:27:2.50,0.64,-0.67,-0.30,-16.48,-10.68,-7.57
2025-02-07,14:27:3.00,0.32,-1.07,-0.27,-104.92,-22.16,199.89
2025-02-07,14:27:3.50,1.16,0.31,-2.52,-49.68,-27.34,369.69
2025-02-07,14:27:4.00,0.18,0.44,-0.55,-13.12,130.68,-217.90
2025-02-07,14:27:4.50,0.19,-0.12,-0.88,17.94,1.34,-1.77
2025-02-07,14:27:5.00,3.31,-0.27,-0.47,-332.95,-927.00,-223.88
2025-02-07,14:27:5.50,3.22,0.89,0.01,386.60,108.70,981.51
2025-02-07,14:27:6.00,4.00,-2.04,-1.08,-58.11,426.76,-1156.56
2025-02-07,14:27:6.50,1.91,-3.85,1.10,-121.70,239.75,-257.57
2025-02-07,14:27:7.00,2.62,-1.19,1.58,-75.26,260.19,879.46
2025-02-07,14:27:7.50,0.11,-0.49,-0.38,3.66,-91.13,9.58
2025-02-07,14:27:8.00,0.44,-1.08,-0.55,-7.51,-36.38,-95.58
2025-02-07,14:27:8.50,0.13,-0.82,-0.37,11.17,-32.04,5.37
2025-02-07,14:27:9.00,0.24,-0.66,-0.57,20.45,-60.55,-19.41
2025-02-07,14:27:9.50,1.45,-2.26,2.09,-301.21,59.08,148.19
2025-02-07,14:27:10.00,0.69,-0.82,-0.22,-12.21,39.67,53.59
2025-02-07,14:27:10.50,1.05,-0.58,0.72,-125.00,317.32,274.29
2025-02-07,14:27:11.00,0.86,0.86,-0.19,15.63,-66.04,329.28
2025-02-07,14:27:11.50,0.65,-0.58,-0.37,-10.07,-10.13,-59.75
2025-02-07,14:27:12.00,0.68,-0.57,-0.39,7.14,2.75,9.77
2025-02-07,14:27:12.50,0.81,-0.58,-0.38,-38.15,42.66,-33.87
2025-02-07,14:27:13.00,0.38,-0.95,-0.57,-23.86,42.72,75.13
2025-02-07,14:27:13.50,-0.09,-0.38,-1.25,30.58,142.76,72.45
2025-02-07,14:27:14.00,0.01,-0.24,-0.73,-46.69,-14.53,93.20
2025-02-07,14:27:14.50,0.20,0.04,-0.84,27.04,-10.86,-2.44
2025-02-07,14:27:15.00,0.40,-0.55,-1.01,43.64,-108.09,-160.28
2025-02-07,14:27:15.50,0.31,-0.33,-0.56,-133.42,-199.28,-334.41
2025-02-07,14:27:16.00,0.22,-0.76,-0.69,130.43,-70.19,-1.77
2025-02-07,14:27:16.50,0.02,-1.26,-0.33,6.84,-103.82,160.95
2025-02-07,14:27:17.00,-0.76,0.32,0.18,252.08,139.53,167.91
2025-02-07,14:27:17.50,0.01,0.89,-0.43,30.76,25.27,58.59
2025-02-07,14:27:18.00,-0.00,0.48,-0.79,123.90,-253.30,-136.29
2025-02-07,14:27:18.50,-0.37,-0.20,0.11,-32.23,257.51,304.99
2025-02-07,14:27:19.00,-0.91,-0.48,0.73,-10.74,-46.75,-55.54
2025-02-07,14:27:19.50,-0.42,-0.05,-0.83,71.84,-334.78,-66.77
2025-02-07,14:27:20.00,-0.50,0.25,-0.92,69.15,92.77,77.09
2025-02-07,14:27:20.50,-0.68,-1.07,1.03,-153.20,113.89,148.68
2025-02-07,14:27:21.00,-0.67,-0.21,-0.70,11.90,-28.63,13.73
2025-02-07,14:27:21.50,-0.81,-0.04,-0.59,145.14,-101.50,147.64
2025-02-07,14:27:22.00,-0.80,0.33,0.90,-77.15,67.32,-31.43
2025-02-07,14:27:22.50,-0.60,-0.44,-0.14,-11.96,150.70,200.56
2025-02-07,14:27:23.00,-0.67,0.03,-0.07,140.99,-184.81,56.82
2025-02-07,14:27:23.50,-0.35,0.25,1.05,-95.64,-94.91,-161.87
2025-02-07,14:27:24.00,-0.62,-0.72,0.39,-48.77,-243.53,-13.85
2025-02-07,14:27:24.50,0.27,-1.10,-0.07,23.13,26.92,13.79
2025-02-07,14:27:25.00,-0.13,-0.47,-0.80,111.08,-52.31,-14.65
2025-02-07,14:27:25.50,0.46,-1.27,-0.47,88.32,-146.61,174.93
2025-02-07,14:27:26.00,4.00,0.89,1.56,-333.19,-693.42,926.27
2025-02-07,14:27:26.50,-0.13,1.74,-0.22,50.60,-83.01,105.16
2025-02-07,14:27:27.00,1.88,-1.01,1.34,-379.03,249.88,-323.79
2025-02-07,14:27:27.50,-0.04,-0.75,-0.08,49.93,-32.53,-1.89
2025-02-07,14:27:28.00,1.38,-1.93,-0.48,-86.12,9.64,45.53
2025-02-07,14:27:28.50,1.06,0.19,-1.03,-32.65,-258.67,-90.27
2025-02-07,14:27:29.00,2.17,-0.30,-1.17,95.21,-365.60,-88.75
2025-02-07,14:27:29.50,0.81,-0.81,-0.37,107.67,66.65,-90.39
2025-02-07,14:27:30.00,2.48,-1.08,-0.34,191.28,-310.12,372.99
2025-02-07,14:27:30.50,0.18,-0.01,0.92,-4.94,27.10,-154.36
2025-02-07,14:27:31.00,3.05,0.20,0.44,-149.35,820.01,7.08
2025-02-07,14:27:31.50,0.67,-0.64,-0.11,-75.87,52.37,230.71
2025-02-07,14:27:32.00,1.09,0.26,-1.80,-195.19,-263.12,115.54
2025-02-07,14:27:32.50,2.02,-0.42,-0.93,89.23,-650.76,104.80
2025-02-07,14:27:33.00,0.78,-0.61,-0.92,143.07,-371.09,321.35
2025-02-07,14:27:33.50,1.98,-0.04,-1.28,721.56,615.97,-459.59
2025-02-07,14:27:34.00,0.22,-0.76,-0.81,102.48,-104.49,-5.86
2025-02-07,14:27:34.50,1.69,-0.85,-0.61,-64.27,-333.56,387.88
2025-02-07,14:27:35.00,0.18,-0.68,0.84,4.58,78.92,-69.76
2025-02-07,14:27:35.50,0.52,-1.02,0.24,17.33,130.25,-22.89
2025-02-07,14:27:36.00,1.64,0.44,-0.10,-51.88,-362.00,240.30
2025-02-07,14:27:36.50,0.73,-0.67,-0.36,-13.37,-26.73,-112.73
2025-02-07,14:27:37.00,-0.05,-0.36,-0.48,64.70,-31.19,29.48
2025-02-07,14:27:37.50,1.13,-1.48,-0.40,50.05,-105.77,199.22
2025-02-07,14:27:38.00,0.80,0.06,-0.63,39.00,-122.56,145.51
2025-02-07,14:27:38.50,1.29,-0.83,-1.43,83.56,-91.37,308.41
2025-02-07,14:27:39.00,0.15,-0.28,0.57,-125.37,-21.67,69.95
2025-02-07,14:27:39.50,1.10,-0.44,-0.25,-8.06,-276.92,103.15
2025-02-07,14:27:40.00,0.06,1.64,1.98,-26.55,-114.87,50.48
2025-02-07,14:27:40.50,0.14,-0.82,0.17,-184.39,142.40,-310.36
2025-02-07,14:27:41.00,0.41,-1.17,-0.76,-12.76,-53.34,249.94
2025-02-07,14:27:41.50,0.21,-0.60,0.46,-10.31,168.95,202.21
2025-02-07,14:27:42.00,1.30,-0.68,-2.34,52.49,187.44,-166.20
2025-02-07,14:27:42.50,0.41,-0.34,-0.77,-3.97,46.45,119.81
2025-02-07,14:27:43.00,1.61,1.58,-2.03,148.38,267.15,365.05
2025-02-07,14:27:43.50,2.05,0.04,-0.07,-709.72,304.69,-815.67
2025-02-07,14:27:44.00,1.04,-0.46,-1.44,178.71,-469.24,318.85
2025-02-07,14:27:44.50,0.38,-1.02,0.70,-141.60,-104.74,-15.56
2025-02-07,14:27:45.00,0.30,-0.68,-0.51,-63.29,-202.94,-32.65
2025-02-07,14:27:45.50,1.19,0.05,-1.11,-85.45,-210.33,-143.19
2025-02-07,14:27:46.00,0.40,-0.43,-0.90,-14.65,5.13,52.86
2025-02-07,14:27:46.50,0.57,0.13,-0.91,-110.96,-31.43,182.92
2025-02-07,14:27:47.00,0.49,0.14,-1.10,168.70,-101.38,17.33
2025-02-07,14:27:47.50,0.75,-0.40,-0.94,7.14,-178.65,-136.29
2025-02-07,14:27:48.00,0.70,-0.43,-0.63,-109.37,-141.54,-447.08
2025-02-07,14:27:48.50,0.06,-0.68,-0.81,1.83,-41.08,-20.87
2025-02-07,14:27:49.00,0.08,-0.74,-0.52,-13.49,-148.13,-130.86
2025-02-07,14:27:49.50,0.25,-0.97,-0.43,11.60,-115.23,-46.45
2025-02-07,14:27:50.00,2.10,-0.99,-0.27,-7.75,541.14,479.74
2025-02-07,14:27:50.50,0.27,-0.60,-0.25,131.59,381.71,267.09
2025-02-07,14:27:51.00,0.52,-0.47,-0.92,-31.25,74.83,80.57
2025-02-07,14:27:51.50,-0.09,-0.41,-0.89,1.16,-150.94,131.65
2025-02-07,14:27:52.00,-0.26,-0.77,-0.55,-32.23,-158.45,17.76
2025-02-07,14:27:52.50,-0.38,-0.54,-0.61,-120.67,-66.96,-110.96
2025-02-07,14:27:53.00,-0.39,-0.92,-0.63,48.77,-2.32,26.98
2025-02-07,14:27:53.50,-0.20,-1.15,-0.11,86.55,-280.40,152.40
2025-02-07,14:27:54.00,-0.21,0.72,1.26,36.74,85.94,-76.54
2025-02-07,14:27:54.50,-0.19,-1.18,-0.62,-93.51,45.10,-5.19
2025-02-07,14:27:55.00,1.34,0.20,-0.96,69.52,256.71,402.34
2025-02-07,14:27:55.50,-0.18,0.10,-0.81,63.60,16.30,-109.56
2025-02-07,14:27:56.00,-0.28,-1.01,-0.69,-13.06,-195.25,185.12
2025-02-07,14:27:56.50,-0.21,0.84,0.65,19.96,40.59,29.85
2025-02-07,14:27:57.00,0.01,0.86,0.52,-21.36,22.58,24.23
2025-02-07,14:27:57.50,-0.25,0.65,0.73,-20.32,-8.12,26.25
2025-02-07,14:27:58.00,0.05,1.00,1.36,-129.03,-113.53,97.29
2025-02-07,14:27:58.50,-0.06,-0.35,0.47,7.39,73.85,-123.47
2025-02-07,14:27:59.00,0.07,-0.01,1.44,-49.50,-132.69,100.16
2025-02-07,14:27:59.50,-0.04,-0.67,0.25,22.95,52.86,-92.04
2025-02-07,14:28:0.00,0.11,-0.68,0.93,-26.43,-225.83,26.49
2025-02-07,14:28:0.50,0.18,-0.71,0.79,8.79,96.80,-12.82
2025-02-07,14:28:1.00,0.02,-0.77,0.75,-10.50,-14.40,5.74
2025-02-07,14:28:1.50,-0.05,-0.67,0.64,-5.25,6.41,9.52
2025-02-07,14:28:2.00,-0.09,-0.74,0.66,-3.48,-6.59,16.60
2025-02-07,14:28:2.50,-0.15,-0.79,0.61,-0.06,-1.71,-8.73
2025-02-07,14:28:3.00,-0.13,-0.88,0.56,-11.78,-28.32,44.80
2025-02-07,14:28:3.50,-0.27,-0.88,0.47,-55.48,-3.11,39.55
2025-02-07,14:28:4.00,-0.39,-0.83,-0.08,26.61,181.03,86.06
2025-02-07,14:28:4.50,-0.36,-0.90,-0.59,-51.82,-1.89,24.41
2025-02-07,14:28:5.00,0.16,-0.64,-0.78,-49.26,-75.81,36.38
2025-02-07,14:28:5.50,0.36,-0.51,-0.71,91.49,-128.91,-45.29
2025-02-07,14:28:6.00,0.48,-1.53,0.26,11.72,-49.74,-176.88
2025-02-07,14:28:6.50,0.91,-1.23,-0.29,193.73,38.88,198.67
2025-02-07,14:28:7.00,0.18,1.56,1.11,401.31,376.04,371.03
2025-02-07,14:28:7.50,-0.78,-0.46,-0.19,-3.54,86.67,142.52
2025-02-07,14:28:8.00,1.82,0.67,-0.43,-123.60,-132.08,475.89
2025-02-07,14:28:8.50,1.78,0.13,-0.70,6.90,-399.11,302.98
2025-02-07,14:28:9.00,0.54,-0.78,-0.56,25.27,5.07,42.97
2025-02-07,14:28:9.50,0.54,-0.38,-0.85,-47.30,70.50,46.14
2025-02-07,14:28:10.00,1.54,-0.49,-1.51,130.98,-549.38,210.39
2025-02-07,14:28:10.50,-0.16,-0.62,0.72,-51.27,-64.15,2.62
2025-02-07,14:28:11.00,-0.41,-0.37,0.69,-8.12,-9.58,-15.50
2025-02-07,14:28:11.50,0.06,-0.45,0.67,9.83,-119.75,0.49
2025-02-07,14:28:12.00,0.67,-0.60,1.07,43.09,-6.29,65.49
2025-02-07,14:28:12.50,0.39,-0.37,0.89,9.83,-76.42,-71.35
2025-02-07,14:28:13.00,0.80,-0.19,0.81,-26.49,51.51,-27.65
2025-02-07,14:28:13.50,0.77,-0.18,0.76,31.37,-60.67,57.01
2025-02-07,14:28:14.00,0.83,-0.29,0.64,-7.32,-14.10,-2.08
2025-02-07,14:28:14.50,0.81,-0.34,0.54,-7.08,-55.42,-2.62
2025-02-07,14:28:15.00,0.87,-0.35,0.35,-28.02,40.95,-19.90
2025-02-07,14:28:15.50,1.72,-0.26,0.55,166.99,-80.57,231.93
2025-02-07,14:28:16.00,3.74,0.10,-0.45,384.09,-20.02,-883.12
2025-02-07,14:28:16.50,1.34,-0.19,0.30,-182.19,-7.02,-262.88
2025-02-07,14:28:17.00,2.15,0.36,-0.89,-157.84,404.42,145.45
2025-02-07,14:28:17.50,4.00,0.06,0.41,559.08,-560.49,-509.03
2025-02-07,14:28:18.00,1.15,-0.45,0.95,-103.82,223.08,-98.14
2025-02-07,14:28:18.50,4.00,0.43,-0.84,-481.63,882.81,30.52
2025-02-07,14:28:19.00,2.70,0.22,-0.35,332.40,-262.57,-289.37
2025-02-07,14:28:19.50,2.79,0.40,1.14,-8.18,-624.33,94.18
2025-02-07,14:28:20.00,4.00,0.49,-0.15,-119.26,945.98,-24.60
2025-02-07,14:28:20.50,0.87,-0.00,-1.13,125.24,1.53,-245.67
2025-02-07,14:28:21.00,4.00,0.25,0.96,502.44,-686.89,248.11
2025-02-07,14:28:21.50,2.90,0.16,0.25,-285.71,481.51,-68.97
2025-02-07,14:28:22.00,0.47,0.31,-1.31,36.07,263.31,7.32
2025-02-07,14:28:22.50,4.00,0.12,0.93,346.01,-767.82,-191.04
2025-02-07,14:28:23.00,1.36,-0.34,0.15,-101.81,222.29,-195.56
2025-02-07,14:28:23.50,2.64,-0.39,0.19,-151.92,265.69,113.95
2025-02-07,14:28:24.00,1.73,-0.45,-0.67,121.09,-201.66,229.55
2025-02-07,14:28:24.50,2.37,-1.41,1.29,175.29,-312.50,-268.31
2025-02-07,14:28:25.00,1.37,-0.96,-2.21,-9.16,-69.03,-13.24
2025-02-07,14:28:25.50,2.89,-0.88,1.09,133.12,-436.52,-403.87
2025-02-07,14:28:26.00,0.71,-0.66,0.42,-9.46,-66.28,-58.59
2025-02-07,14:28:26.50,0.89,-0.28,0.29,35.52,-3.60,-6.77
2025-02-07,14:28:27.00,2.90,-0.46,0.03,198.97,110.53,707.40
2025-02-07,14:28:27.50,1.55,-0.24,-1.16,15.69,10.93,203.37
2025-02-07,14:28:28.00,1.74,-0.55,1.36,-91.00,-447.45,-212.04
2025-02-07,14:28:28.50,3.87,-0.48,-0.53,21.24,533.33,-631.84
2025-02-07,14:28:29.00,0.61,-0.41,-0.49,-70.31,178.96,-202.76
2025-02-07,14:28:29.50,0.44,0.11,-1.17,6.04,161.01,136.60
2025-02-07,14:28:30.00,3.05,0.09,0.54,215.52,-570.98,-248.60
2025-02-07,14:28:30.50,0.17,0.11,1.60,10.13,173.22,103.94
2025-02-07,14:28:31.00,3.46,0.10,-0.48,-326.29,737.55,158.26
2025-02-07,14:28:31.50,0.56,-0.01,-0.74,107.06,-244.38,-240.42
2025-02-07,14:28:32.00,1.41,-1.43,0.20,212.77,-119.32,-359.50
2025-02-07,14:28:32.50,1.01,-0.34,-0.85,-78.31,157.17,-43.03
2025-02-07,14:28:33.00,0.86,-0.49,-0.34,-34.06,62.93,34.30
2025-02-07,14:28:33.50,0.63,-0.34,-0.31,-39.37,-32.65,-25.63
2025-02-07,14:28:34.00,4.00,0.63,0.10,-174.68,-684.08,922.00
2025-02-07,14:28:34.50,4.00,0.98,-0.03,1065.98,1623.90,342.90
2025-02-07,14:28:35.00,4.00,-1.26,1.35,632.69,-469.18,-596.86
2025-02-07,14:28:35.50,2.28,0.33,-1.23,-562.81,138.12,345.64
2025-02-07,14:28:36.00,4.00,0.35,1.13,123.72,-980.90,-255.07
2025-02-07,14:28:36.50,4.00,0.50,0.07,-476.93,1069.82,263.79
2025-02-07,14:28:37.00,4.00,0.23,0.22,329.83,-598.39,-628.05
2025-02-07,14:28:37.50,1.68,-0.74,1.28,-64.21,524.84,88.56
2025-02-07,14:28:38.00,1.36,0.54,-1.07,-294.01,162.05,251.83
2025-02-07,14:28:38.50,0.49,-0.85,-0.04,80.14,-44.31,-107.73
2025-02-07,14:28:39.00,0.89,-0.30,-0.53,33.51,-36.25,-44.74
2025-02-07,14:28:39.50,0.50,-0.97,-0.20,23.80,-175.78,256.53
2025-02-07,14:28:40.00,-0.66,-0.73,0.62,-33.26,-75.26,117.98
2025-02-07,14:28:40.50,0.15,0.26,0.68,39.73,-178.59,205.63
2025-02-07,14:28:41.00,0.97,0.11,1.60,-109.44,30.21,-92.29
2025-02-07,14:28:41.50,3.99,-0.18,3.52,-194.76,-860.35,-21.12
2025-02-07,14:28:42.00,2.64,0.91,2.19,-224.91,-742.80,283.87
2025-02-07,14:28:42.50,2.41,1.11,0.71,-276.43,-674.13,643.01
2025-02-07,14:28:43.00,-0.96,-0.08,0.03,-49.99,-64.64,169.98
2025-02-07,14:28:43.50,-0.61,-0.32,-0.85,62.81,75.93,-1.89
2025-02-07,14:28:44.00,-0.25,-0.48,-0.61,108.95,122.86,94.24
2025-02-07,14:28:44.50,-0.98,-0.57,-0.73,-24.35,-30.88,70.07
2025-02-07,14:28:45.00,-0.22,-0.81,-0.70,-0.18,14.22,-88.81
2025-02-07,14:28:45.50,-0.49,-0.65,-0.68,25.39,60.73,60.00
2025-02-07,14:28:46.00,0.24,-0.73,-0.70,7.45,52.43,-52.00
2025-02-07,14:28:46.50,0.32,-0.84,-0.67,2.69,-36.44,85.08
2025-02-07,14:28:47.00,-0.25,-0.61,-0.72,12.63,31.92,38.33
2025-02-07,14:28:47.50,-0.40,-0.51,-0.70,-17.52,-14.95,7.02
2025-02-07,14:28:48.00,0.21,-0.52,-1.23,-20.81,34.00,36.68
2025-02-07,14:28:48.50,0.84,-1.79,0.37,-98.63,18.49,272.28
2025-02-07,14:28:49.00,0.27,1.48,0.46,203.12,144.84,6.53
2025-02-07,14:28:49.50,0.16,0.74,0.62,-3.05,-52.31,-64.58
2025-02-07,14:28:50.00,0.80,-0.16,0.64,63.72,-94.91,29.30
2025-02-07,14:28:50.50,2.10,0.86,0.26,433.47,239.38,353.09
2025-02-07,14:28:51.00,2.52,0.10,0.68,523.25,-228.33,127.44
2025-02-07,14:28:51.50,-0.58,0.15,0.40,16.54,-81.18,-189.82
2025-02-07,14:28:52.00,4.00,0.57,-0.25,-197.14,714.29,428.71
2025-02-07,14:28:52.50,0.49,0.57,0.01,-0.98,103.15,-281.98
2025-02-07,14:28:53.00,4.00,0.60,0.33,338.32,-628.97,572.69
2025-02-07,14:28:53.50,1.87,0.51,0.09,17.58,-485.60,-184.33
2025-02-07,14:28:54.00,4.00,0.51,0.19,-530.58,847.35,549.93
2025-02-07,14:28:54.50,0.60,1.14,-0.60,128.05,69.27,-203.98
2025-02-07,14:28:55.00,4.00,0.48,0.55,251.53,-912.48,-124.57
2025-02-07,14:28:55.50,1.23,0.76,0.37,-75.13,14.77,-401.37
2025-02-07,14:28:56.00,4.00,0.43,-0.39,-381.04,1149.84,117.74
2025-02-07,14:28:56.50,0.57,1.09,-0.50,105.77,138.98,-110.72
2025-02-07,14:28:57.00,1.77,-0.21,0.02,371.40,-109.92,-371.64
2025-02-07,14:28:57.50,1.13,-0.18,-0.28,-71.78,98.69,-29.66
2025-02-07,14:28:58.00,1.01,-0.01,-0.19,4.33,26.73,-95.21
2025-02-07,14:28:58.50,0.24,-0.13,0.02,-21.24,-362.55,294.62
2025-02-07,14:28:59.00,0.27,-0.23,1.00,-107.97,105.65,17.58
2025-02-07,14:28:59.50,2.46,-1.05,-0.68,-1.77,365.97,-504.39
2025-02-07,14:29:0.00,1.02,-1.32,-0.48,-105.53,-21.97,101.20
2025-02-07,14:29:0.50,0.21,-0.68,-0.38,-66.16,-89.60,-19.47
2025-02-07,14:29:1.00,0.39,-0.28,-1.28,-10.31,-15.63,8.54
2025-02-07,14:29:1.50,0.64,-0.42,-0.62,-21.24,29.36,52.00
2025-02-07,14:29:2.00,0.48,-0.73,-0.48,12.57,-9.89,35.77
2025-02-07,14:29:2.50,0.40,-0.69,-0.85,36.32,7.75,0.37
2025-02-07,14:29:3.00,0.11,-0.64,-0.97,325.81,54.26,29.54
2025-02-07,14:29:3.50,0.35,-0.56,-2.59,-1578.86,-239.20,-223.39
2025-02-07,14:29:4.00,0.05,-0.46,-1.06,-33.39,-53.28,70.01
2025-02-07,14:29:4.50,-0.35,0.80,0.35,463.56,106.81,104.86
2025-02-07,14:29:5.00,0.02,-0.13,0.86,-23.62,-45.90,87.22
2025-02-07,14:29:5.50,-0.00,1.08,0.28,65.06,165.89,-1.83
2025-02-07,14:29:6.00,0.10,-1.15,-0.57,10.80,5.98,-53.47
2025-02-07,14:29:6.50,0.07,-0.50,-0.93,-412.72,-106.14,-62.68
2025-02-07,14:29:7.00,-0.09,0.71,-0.49,-348.94,-152.22,-149.05
2025-02-07,14:29:7.50,-0.14,-0.49,-0.90,-290.89,-97.47,-21.55
2025-02-07,14:29:8.00,-0.71,-0.22,-0.82,-129.82,23.86,67.08
2025-02-07,14:29:8.50,-0.48,0.61,0.59,-220.95,-30.76,26.55
2025-02-07,14:29:9.00,-0.31,-0.84,-0.48,-124.27,-5.62,25.02
2025-02-07,14:29:9.50,-0.36,0.14,1.07,985.17,131.90,-131.90
2025-02-07,14:29:10.00,-0.15,-0.81,0.28,94.24,4.70,-48.71
2025-02-07,14:29:10.50,-0.18,-0.56,1.06,239.56,77.39,-7.81
2025-02-07,14:29:11.00,-0.32,0.51,0.84,-25.45,-15.50,17.15
2025-02-07,14:29:11.50,-0.06,-0.15,1.06,-72.57,-17.46,18.25
2025-02-07,14:29:12.00,0.00,-0.62,0.82,-21.30,-5.68,4.15
2025-02-07,14:29:12.50,0.02,-0.71,0.72,-7.87,-5.07,-0.31
2025-02-07,14:29:13.00,-0.03,-0.79,0.85,-1.77,11.90,6.71
2025-02-07,14:29:13.50,0.03,-0.78,0.66,-6.96,1.77,3.05
2025-02-07,14:29:14.00,0.03,-0.77,0.58,-2.26,13.06,-3.54
2025-02-07,14:29:14.50,-0.02,-0.85,0.50,-10.13,-2.99,-1.28
2025-02-07,14:29:15.00,-0.02,-0.90,0.43,-0.61,-1.83,-14.89
2025-02-07,14:29:15.50,0.06,-0.94,0.36,1.22,-4.64,3.11
2025-02-07,14:29:16.00,0.09,-0.94,0.39,-3.60,-5.43,0.31
2025-02-07,14:29:16.50,0.07,-0.93,0.44,-5.74,-3.11,0.12
2025-02-07,14:29:17.00,0.08,-0.95,0.43,-1.71,-1.22,-0.12
2025-02-07,14:29:17.50,0.05,-0.89,0.35,-0.24,0.43,0.18
2025-02-07,14:29:18.00,0.08,-0.96,0.35,39.92,-17.88,21.61
2025-02-07,14:29:18.50,0.17,-1.06,0.10,-43.64,-22.89,-13.55
2025-02-07,14:29:19.00,-0.04,-1.08,0.37,125.55,13.67,-33.57
2025-02-07,14:29:19.50,-0.59,-0.33,0.11,550.96,275.51,-95.28
2025-02-07,14:29:20.00,0.47,-1.22,-1.71,-949.04,-341.92,-190.61
2025-02-07,14:29:20.50,0.48,-1.36,-0.46,27.34,9.89,-171.63
2025-02-07,14:29:21.00,0.11,-1.07,-0.13,9.22,56.46,21.55
2025-02-07,14:29:21.50,0.03,-0.93,0.04,7.39,39.92,-3.72
2025-02-07,14:29:22.00,-0.00,-0.92,0.30,-14.53,0.67,18.86
2025-02-07,14:29:22.50,0.07,-0.88,0.34,13.79,22.40,-7.81
2025-02-07,14:29:23.00,0.14,-1.16,0.48,-29.30,-39.37,-0.98
2025-02-07,14:29:23.50,0.07,-1.19,-0.01,102.29,-93.32,-63.78
2025-02-07,14:29:24.00,0.73,-2.30,-0.24,429.14,388.67,-277.40
2025-02-07,14:29:24.50,0.22,-0.06,-1.09,-786.99,-396.67,-91.80
2025-02-07,14:29:25.00,0.19,-0.71,-0.84,-26.73,-14.34,-17.58
2025-02-07,14:29:25.50,-0.28,-0.31,0.72,358.83,126.89,10.13
2025-02-07,14:29:26.00,0.28,-0.92,-1.19,-514.89,-203.00,0.06
2025-02-07,14:29:26.50,0.03,-1.04,0.00,138.67,64.21,-32.04
2025-02-07,14:29:27.00,0.33,-0.45,0.05,-209.66,-256.10,20.94
2025-02-07,14:29:27.50,-0.03,-0.60,0.43,-177.98,4.76,69.76
2025-02-07,14:29:28.00,0.84,-2.43,0.72,572.88,502.75,-385.31
2025-02-07,14:29:28.50,-0.36,0.03,-0.38,-615.42,-289.86,-16.78
2025-02-07,14:29:29.00,0.33,-0.63,0.93,-97.72,-103.58,-20.32
2025-02-07,14:29:29.50,0.75,-0.83,0.38,-5.19,-33.51,-16.05
2025-02-07,14:29:30.00,0.63,-0.69,0.38,-4.58,82.03,-41.14
2025-02-07,14:29:30.50,0.74,-0.58,0.28,-31.25,-26.06,-9.16
2025-02-07,14:29:31.00,0.72,-0.67,-0.03,10.44,-33.08,-10.80
2025-02-07,14:29:31.50,0.71,-0.76,-0.11,66.41,-99.18,1.83
2025-02-07,14:29:32.00,0.43,-0.93,0.00,-12.27,2.62,-15.08
2025-02-07,14:29:32.50,0.36,-0.81,-0.36,-7.32,-43.46,-23.13
2025-02-07,14:29:33.00,0.74,-0.83,0.02,82.95,-153.63,-39.67
2025-02-07,14:29:33.50,0.06,-0.95,0.12,-1.46,1.46,45.35
2025-02-07,14:29:34.00,2.23,-0.18,-0.47,-91.67,532.41,48.22
2025-02-07,14:29:34.50,1.24,-0.98,-0.60,199.71,-9.77,-225.65
2025-02-07,14:29:35.00,-0.34,-0.50,1.12,-29.66,-111.94,158.94
2025-02-07,14:29:35.50,0.47,0.25,-1.06,-95.76,-56.88,172.24
2025-02-07,14:29:36.00,-0.25,-0.49,0.34,-8.97,-180.97,102.42
2025-02-07,14:29:36.50,0.17,0.35,-0.88,-74.89,-161.38,91.31
2025-02-07,14:29:37.00,-0.23,-0.40,0.43,-96.62,-239.01,109.44
2025-02-07,14:29:37.50,0.64,0.57,-0.68,28.75,-196.66,-318.66
2025-02-07,14:29:38.00,0.77,-1.02,0.30,-166.20,394.90,73.73
2025-02-07,14:29:38.50,3.49,0.12,0.23,161.01,-243.10,-571.17
2025-02-07,14:29:39.00,2.03,-0.42,-0.81,-169.43,383.85,81.48
2025-02-07,14:29:39.50,0.93,-0.43,-0.42,20.39,66.41,36.80
2025-02-07,14:29:40.00,2.68,3.63,2.29,217.35,-165.95,414.37
2025-02-07,14:29:40.50,1.98,0.38,0.60,-39.61,-593.44,40.59
2025-02-07,14:29:41.00,0.81,-0.04,-0.23,10.19,-115.05,-108.95
2025-02-07,14:29:41.50,0.86,-0.32,-0.46,5.00,-18.49,-35.40
2025-02-07,14:29:42.00,0.82,-0.50,-0.31,6.16,-1.71,-0.06
2025-02-07,14:29:42.50,1.19,-0.38,-0.56,-34.91,4.46,-85.94
2025-02-07,14:29:43.00,-0.26,-0.11,0.45,-59.08,286.32,-34.55
2025-02-07,14:29:43.50,-0.61,1.10,0.47,-23.62,-151.37,265.81
2025-02-07,14:29:44.00,0.51,0.57,0.34,-8.79,-246.52,456.36
2025-02-07,14:29:44.50,0.48,-0.87,-0.48,3.11,-57.37,255.19
2025-02-07,14:29:45.00,-0.45,-0.66,-0.56,6.77,137.82,11.41
2025-02-07,14:29:45.50,-0.04,-1.08,-0.62,10.99,38.64,89.29
2025-02-07,14:29:46.00,-0.76,-0.55,-0.39,19.47,-4.64,68.60
2025-02-07,14:29:46.50,-0.90,-0.26,-0.45,375.61,79.47,-75.01
2025-02-07,14:29:47.00,-0.90,-0.38,0.22,37.54,11.35,-6.65
2025-02-07,14:29:47.50,-0.79,-0.71,0.16,-11.05,-26.37,-24.96
2025-02-07,14:29:48.00,-0.78,-0.76,0.08,-5.00,18.07,14.22
2025-02-07,14:29:48.50,-0.87,-0.57,-0.06,4.09,6.16,26.31
2025-02-07,14:29:49.00,-0.85,-0.48,-0.24,-193.36,-76.48,13.37
2025-02-07,14:29:49.50,-1.04,-0.06,0.02,-8.48,3.60,-5.31
2025-02-07,14:29:50.00,-0.92,-0.27,-0.17,200.99,110.53,26.92
2025-02-07,14:29:50.50,-0.20,-0.94,-0.20,96.86,25.21,-27.83
2025-02-07,14:29:51.00,0.50,-0.78,-0.27,3.72,-37.60,-122.31
2025-02-07,14:29:51.50,1.16,-0.80,-0.25,15.56,-69.58,35.03
2025-02-07,14:29:52.00,0.92,-0.25,-0.38,-97.17,142.15,103.58
2025-02-07,14:29:52.50,0.88,-0.27,-0.27,135.56,-91.67,-66.65
2025-02-07,14:29:53.00,0.88,-0.23,-0.44,-50.11,129.52,90.03
2025-02-07,14:29:53.50,0.92,-0.51,-0.04,5.25,-41.63,-3.97
2025-02-07,14:29:54.00,0.89,-0.47,-0.22,39.25,-79.35,-66.22
2025-02-07,14:29:54.50,0.97,-0.35,-0.26,24.29,-22.71,-40.04
2025-02-07,14:29:55.00,0.93,-0.22,-0.20,2.99,6.35,-20.57
2025-02-07,14:29:55.50,2.66,-0.04,-0.17,46.39,-175.23,811.52
2025-02-07,14:29:56.00,2.35,0.41,0.30,-161.68,715.33,16.97
2025-02-07,14:29:56.50,4.00,0.35,0.08,59.27,-466.06,874.45
2025-02-07,14:29:57.00,4.00,0.67,-0.17,171.45,1163.09,56.95
2025-02-07,14:29:57.50,4.00,1.00,0.91,-192.02,-841.25,493.77
2025-02-07,14:29:58.00,-0.08,-0.19,0.46,-13.00,-95.58,-78.61
2025-02-07,14:29:58.50,0.95,0.02,0.58,126.40,44.56,-10.56
2025-02-07,14:29:59.00,2.78,-0.45,0.70,440.73,-609.25,-218.44
2025-02-07,14:29:59.50,0.65,-0.45,0.81,-127.01,97.96,-59.94
2025-02-07,14:30:0.00,2.46,0.43,-0.38,-320.07,138.92,534.18
2025-02-07,14:30:0.50,3.08,-0.11,0.01,392.94,-275.70,-475.89
2025-02-07,14:30:1.00,4.00,0.70,0.75,397.03,-297.00,625.31
2025-02-07,14:30:1.50,4.00,-0.05,0.52,-501.40,-92.04,-496.58
2025-02-07,14:30:2.00,3.27,0.90,-0.09,-302.12,43.52,589.72
2025-02-07,14:30:2.50,3.99,-0.13,-0.14,492.74,78.06,-645.08
2025-02-07,14:30:3.00,1.30,-0.68,-0.27,-202.15,249.82,119.32
2025-02-07,14:30:3.50,1.11,-0.18,-0.73,-22.28,94.97,-80.69
2025-02-07,14:30:4.00,0.95,-0.17,-0.48,-48.89,104.92,107.85
2025-02-07,14:30:4.50,0.75,-0.40,-0.35,-20.94,-30.40,40.41
2025-02-07,14:30:5.00,1.09,-0.09,-0.44,35.34,-58.35,-68.79
2025-02-07,14:30:5.50,0.93,0.04,-0.46,-19.96,32.17,55.66
2025-02-07,14:30:6.00,0.83,-0.25,-0.43,3.48,9.77,12.27
2025-02-07,14:30:6.50,0.95,-0.18,-0.33,14.22,-31.31,-32.35
2025-02-07,14:30:7.00,0.94,-0.20,-0.41,3.36,-8.00,-6.90
2025-02-07,14:30:7.50,0.85,-0.08,-0.46,-8.48,12.88,28.69
2025-02-07,14:30:8.00,0.99,-0.14,-0.51,17.82,11.90,-2.20
2025-02-07,14:30:8.50,0.97,-0.13,-0.41,4.15,16.48,-5.13
2025-02-07,14:30:9.00,0.90,-0.04,-0.38,-21.06,8.85,4.39
2025-02-07,14:30:9.50,0.90,-0.12,-0.33,-2.08,6.29,1.10
2025-02-07,14:30:10.00,0.94,-0.14,-0.39,3.11,-4.15,-0.79
2025-02-07,14:30:10.50,1.17,-0.12,-0.42,32.23,-45.41,47.67
2025-02-07,14:30:11.00,0.72,-0.15,-0.28,30.76,8.36,-8.54
2025-02-07,14:30:11.50,1.03,-0.07,-0.33,24.78,-12.39,-58.84
2025-02-07,14:30:12.00,1.06,0.06,-0.24,-10.01,-20.08,21.24
2025-02-07,14:30:12.50,1.35,-0.34,-0.01,113.28,-29.91,-301.76
2025-02-07,14:30:13.00,0.95,0.12,0.03,-94.18,-66.04,88.81
2025-02-07,14:30:13.50,3.99,0.25,-0.18,80.08,-237.61,216.80
2025-02-07,14:30:14.00,1.14,-0.62,1.08,135.38,22.34,126.89
2025-02-07,14:30:14.50,-0.14,-1.09,0.70,-473.94,110.96,531.56
2025-02-07,14:30:15.00,1.49,0.46,-0.67,-53.10,347.53,66.47
2025-02-07,14:30:15.50,4.00,0.45,0.64,367.07,-821.41,-73.06
2025-02-07,14:30:16.00,2.15,0.03,0.32,-194.40,342.96,-248.41
2025-02-07,14:30:16.50,1.97,0.04,0.12,10.38,-143.80,-405.76
2025-02-07,14:30:17.00,1.07,0.19,0.25,4.76,-78.00,-124.63
2025-02-07,14:30:17.50,0.69,0.16,0.20,-7.26,-171.81,80.38
2025-02-07,14:30:18.00,1.09,0.22,0.36,-246.09,-197.94,28.87
2025-02-07,14:30:18.50,0.96,-0.52,0.39,-206.18,8.18,116.09
2025-02-07,14:30:19.00,0.63,0.11,-0.27,-82.52,384.03,-4.09
2025-02-07,14:30:19.50,1.76,0.23,0.05,76.35,-176.94,-67.93
2025-02-07,14:30:20.00,1.48,0.02,0.60,131.16,-498.78,-156.86
2025-02-07,14:30:20.50,1.15,0.08,0.71,-43.70,-6.35,-236.33
2025-02-07,14:30:21.00,1.86,0.01,-0.12,-311.10,503.30,65.37
2025-02-07,14:30:21.50,2.66,0.25,-0.06,164.31,-292.36,-278.63
2025-02-07,14:30:22.00,1.84,-0.60,0.82,316.77,-324.83,-236.45
2025-02-07,14:30:22.50,-0.86,-0.63,0.27,-46.63,117.55,235.29
2025-02-07,14:30:23.00,1.30,0.94,-0.73,109.13,266.24,96.44
2025-02-07,14:30:23.50,-0.09,0.16,-0.37,74.71,-121.03,-299.80
2025-02-07,14:30:24.00,1.24,-0.95,0.25,112.73,-72.75,-56.64
2025-02-07,14:30:24.50,1.46,0.52,-0.36,-183.78,352.17,313.05
2025-02-07,14:30:25.00,1.18,0.03,-0.21,168.52,-27.34,29.97
2025-02-07,14:30:25.50,4.00,0.54,0.60,503.17,-840.45,334.90
2025-02-07,14:30:26.00,-0.11,1.07,0.72,13.79,63.05,-131.04
2025-02-07,14:30:26.50,4.00,0.22,-0.20,-578.49,784.91,-330.99
2025-02-07,14:30:27.00,1.33,0.32,-0.56,233.15,-37.60,-407.84
2025-02-07,14:30:27.50,1.16,-0.45,-0.24,-22.89,184.08,-89.42
2025-02-07,14:30:28.00,1.08,-0.12,-0.18,57.37,-21.42,-125.55
2025-02-07,14:30:28.50,0.93,-0.11,-0.24,-29.17,58.29,39.37
2025-02-07,14:30:29.00,1.31,-0.29,-0.58,32.10,75.26,229.06
2025-02-07,14:30:29.50,2.43,-0.62,0.90,-39.00,392.52,400.88
2025-02-07,14:30:30.00,2.06,-0.56,-0.96,-58.41,-291.87,350.28
2025-02-07,14:30:30.50,0.87,-0.14,-0.40,-43.95,-117.19,45.65
2025-02-07,14:30:31.00,0.51,-0.46,-0.53,-9.77,-10.01,14.65
2025-02-07,14:30:31.50,0.61,-0.51,-0.32,0.79,-23.86,2.81
2025-02-07,14:30:32.00,4.00,-1.07,-1.20,93.02,-252.69,488.89
2025-02-07,14:30:32.50,0.52,0.15,-0.12,-16.36,119.93,-44.74
2025-02-07,14:30:33.00,2.86,-0.89,0.44,-108.15,197.75,112.98
2025-02-07,14:30:33.50,1.59,0.06,0.31,9.03,-382.14,-245.61
2025-02-07,14:30:34.00,0.45,-0.32,-0.29,74.04,-51.88,-39.12
2025-02-07,14:30:34.50,4.00,-0.58,2.33,428.34,-870.18,-136.29
2025-02-07,14:30:35.00,0.95,-0.51,0.17,43.88,-106.32,80.51
2025-02-07,14:30:35.50,4.00,0.27,-0.10,454.96,1138.92,-175.90
2025-02-07,14:30:36.00,0.74,-0.54,0.08,41.99,43.88,-111.21
2025-02-07,14:30:36.50,3.28,0.45,1.91,292.66,-769.90,442.57
2025-02-07,14:30:37.00,0.08,0.83,0.35,-64.64,-38.21,97.05
2025-02-07,14:30:37.50,4.00,-0.23,-0.25,-60.00,995.61,-971.31
2025-02-07,14:30:38.00,0.98,-0.67,-0.08,-25.88,84.05,197.08
2025-02-07,14:30:38.50,0.82,-0.43,-0.15,17.27,38.76,66.89
2025-02-07,14:30:39.00,0.95,-0.57,-0.19,40.83,-10.62,-129.76
2025-02-07,14:30:39.50,1.51,-0.98,-0.91,31.98,-50.05,34.48
2025-02-07,14:30:40.00,0.43,0.43,0.98,115.54,139.77,108.52
2025-02-07,14:30:40.50,0.54,-0.65,1.44,-64.27,-135.44,-38.45
2025-02-07,14:30:41.00,1.06,-0.77,0.61,-76.84,27.65,75.99
2025-02-07,14:30:41.50,-0.80,-0.99,0.41,59.63,79.41,18.01
2025-02-07,14:30:42.00,-0.65,0.15,0.98,-26.67,-81.18,147.83
2025-02-07,14:30:42.50,-0.36,0.62,-0.10,-56.40,-111.45,-289.55
2025-02-07,14:30:43.00,0.86,0.14,-0.16,-16.66,17.46,-292.36
2025-02-07,14:30:43.50,0.50,0.79,-0.26,-19.53,10.56,117.49
2025-02-07,14:30:44.00,1.29,0.89,-0.16,23.99,-198.43,-375.79
2025-02-07,14:30:44.50,1.13,2.82,-1.07,41.20,-13.61,41.93
2025-02-07,14:30:45.00,0.49,-0.55,-0.27,-38.02,81.12,270.75
2025-02-07,14:30:45.50,0.37,0.89,-0.49,-7.45,0.43,-25.45
2025-02-07,14:30:46.00,0.33,0.73,-0.48,-0.49,0.24,-3.78
2025-02-07,14:30:46.50,0.32,0.75,-0.56,0.18,8.61,-18.37
2025-02-07,14:30:47.00,0.31,0.75,-0.65,-11.54,74.89,-0.61
2025-02-07,14:30:47.50,0.36,0.34,-0.57,69.76,-66.10,72.45
2025-02-07,14:30:48.00,0.05,0.41,-0.49,0.49,-74.22,52.67
2025-02-07,14:30:48.50,0.43,0.14,-0.95,-19.78,-17.76,26.49
2025-02-07,14:30:49.00,0.42,-0.08,-0.30,-25.63,213.20,51.15
2025-02-07,14:30:49.50,1.33,0.49,-1.39,6.90,-419.68,-109.19
2025-02-07,14:30:50.00,0.03,-0.26,-0.50,-41.93,211.06,-64.33
2025-02-07,14:30:50.50,-0.41,-1.12,0.68,-8.00,30.46,-174.44
2025-02-07,14:30:51.00,0.45,-1.37,0.36,-30.52,-69.40,-156.37
2025-02-07,14:30:51.50,1.42,0.16,-2.12,-41.81,-248.54,-231.57
2025-02-07,14:30:52.00,1.44,-1.57,-0.01,-110.84,46.20,732.36
2025-02-07,14:30:52.50,1.51,-2.02,0.44,-130.80,-34.97,-624.76
2025-02-07,14:30:53.00,1.78,0.51,-1.14,15.99,-587.10,-380.49
2025-02-07,14:30:53.50,1.78,0.49,1.53,-837.22,-709.96,-37.78
2025-02-07,14:30:54.00,1.31,-1.07,-0.98,-126.53,-117.19,429.50
2025-02-07,14:30:54.50,-0.01,-0.03,0.69,-11.78,41.44,-1.95
2025-02-07,14:30:55.00,0.16,-0.45,1.12,-8.06,-8.18,-1.16
2025-02-07,14:30:55.50,0.03,-0.34,0.72,4.09,-14.28,4.82
2025-02-07,14:30:56.00,0.32,-0.43,1.18,-3.48,-71.11,-30.58
2025-02-07,14:30:56.50,0.12,-0.29,1.04,-1.10,-3.05,6.90
2025-02-07,14:30:57.00,0.12,-0.30,0.95,5.25,0.06,8.79
2025-02-07,14:30:57.50,0.11,-0.28,0.97,-2.87,2.20,7.02
2025-02-07,14:30:58.00,0.14,-0.37,1.07,2.62,-18.55,-4.15
2025-02-07,14:30:58.50,0.09,-0.31,0.97,-0.79,-1.65,0.85
2025-02-07,14:30:59.00,0.08,-0.28,0.87,0.67,-4.82,0.73
2025-02-07,14:30:59.50,0.09,-0.28,1.04,5.74,-1.34,-8.18
2025-02-07,14:31:0.00,0.08,-0.24,0.96,-0.06,-2.69,-0.92
2025-02-07,14:31:0.50,0.09,-0.33,1.03,1.22,1.59,-1.46
2025-02-07,14:31:1.00,0.11,-0.33,1.05,3.11,-9.95,-5.37
2025-02-07,14:31:1.50,0.09,-0.27,0.94,-3.97,-4.52,1.95
2025-02-07,14:31:2.00,0.09,-0.25,1.01,-3.60,-0.55,4.15
2025-02-07,14:31:2.50,0.09,-0.23,1.01,-3.23,-4.82,-10.62
2025-02-07,14:31:3.00,0.25,-0.33,0.90,-14.47,-4.76,-10.01
2025-02-07,14:31:3.50,0.21,-0.30,0.80,5.74,2.87,-9.22
2025-02-07,14:31:4.00,0.18,-0.32,0.91,-0.24,2.93,2.01
2025-02-07,14:31:4.50,0.19,-0.34,0.94,-2.87,-1.53,2.32
2025-02-07,14:31:5.00,0.36,-0.43,0.93,-19.04,74.83,4.27
2025-02-07,14:31:5.50,0.24,-0.52,0.76,15.75,21.42,-18.98
2025-02-07,14:31:6.00,0.02,-0.44,0.82,-16.72,10.44,22.52
2025-02-07,14:31:6.50,-0.17,-0.48,0.87,12.33,25.09,-5.13
2025-02-07,14:31:7.00,-0.18,-0.50,0.86,-2.38,-0.61,7.26
2025-02-07,14:31:7.50,-0.21,-0.51,0.90,1.46,0.79,-1.59
2025-02-07,14:31:8.00,-0.24,-0.48,0.88,3.72,3.54,-3.17
2025-02-07,14:31:8.50,-0.28,-0.46,0.88,3.91,5.37,-0.37
2025-02-07,14:31:9.00,-0.32,-0.47,0.90,-3.85,-3.23,5.31
2025-02-07,14:31:9.50,2.34,-1.46,-0.36,143.25,570.50,-486.63
2025-02-07,14:31:10.00,0.33,-0.57,-0.18,11.05,-6.71,-69.52
2025-02-07,14:31:10.50,1.80,0.86,-2.66,608.40,275.15,-197.51
2025-02-07,14:31:11.00,0.90,-0.27,-0.88,-10.56,-2.56,71.53
2025-02-07,14:31:11.50,0.37,0.21,-0.04,10.56,-0.79,67.63
2025-02-07,14:31:12.00,4.00,-0.48,0.42,65.61,-343.99,1526.49
2025-02-07,14:31:12.50,0.75,-0.53,-0.72,-30.40,-53.10,-62.26
2025-02-07,14:31:13.00,4.00,0.41,-0.93,-225.59,-766.17,833.19
2025-02-07,14:31:13.50,0.78,-1.16,-0.53,-4.64,72.27,-106.45
2025-02-07,14:31:14.00,0.55,-0.84,-0.31,7.26,-7.69,-8.12
2025-02-07,14:31:14.50,0.75,-0.85,-0.38,11.72,-27.65,3.54
2025-02-07,14:31:15.00,1.10,-0.01,0.13,133.06,-362.37,72.20
2025-02-07,14:31:15.50,0.65,-0.35,-0.82,36.19,76.78,2.87
2025-02-07,14:31:16.00,0.72,-0.24,-0.63,-11.05,-1.10,-13.85
2025-02-07,14:31:16.50,0.63,-0.35,-0.65,1.59,-41.38,-23.19
2025-02-07,14:31:17.00,0.61,-0.39,-0.73,5.07,-16.78,-0.31
2025-02-07,14:31:17.50,0.53,-0.33,-0.69,19.90,4.33,19.78
2025-02-07,14:31:18.00,0.56,-0.44,-0.62,3.23,5.68,0.61
2025-02-07,14:31:18.50,0.57,-0.48,-0.67,3.60,-1.95,4.21
2025-02-07,14:31:19.00,0.56,-0.52,-0.67,-11.05,-12.15,-3.97
2025-02-07,14:31:19.50,0.56,-0.45,-0.70,0.37,5.62,0.49
2025-02-07,14:31:20.00,0.52,-0.47,-0.64,-0.49,-5.49,5.55
2025-02-07,14:31:20.50,0.56,-0.54,-0.60,-2.01,-5.98,0.18
2025-02-07,14:31:21.00,0.55,-0.51,-0.64,-3.91,-2.20,-5.55
2025-02-07,14:31:21.50,0.58,-0.52,-0.71,-4.21,-4.15,0.92
2025-02-07,14:31:22.00,0.42,-0.45,-0.62,4.82,17.52,7.14
2025-02-07,14:31:22.50,0.48,-0.48,-0.63,0.85,-4.09,7.14
2025-02-07,14:31:23.00,0.49,-0.51,-0.56,-19.90,14.28,-6.96
2025-02-07,14:31:23.50,0.71,-0.48,-0.78,-13.24,31.13,37.66
2025-02-07,14:31:24.00,0.34,-0.74,-0.74,-52.06,-84.53,201.54
2025-02-07,14:31:24.50,-0.58,-0.08,-0.63,19.78,7.14,99.49
2025-02-07,14:31:25.00,0.53,-0.05,0.35,-35.10,128.97,240.36
2025-02-07,14:31:25.50,0.94,-0.97,0.16,64.39,0.31,-75.38
2025-02-07,14:31:26.00,1.19,-0.68,-1.77,97.78,-26.00,170.72
2025-02-07,14:31:26.50,0.26,-0.49,-0.80,18.37,29.97,18.19
2025-02-07,14:31:27.00,0.79,-0.48,-0.72,-35.77,-43.46,-84.47
2025-02-07,14:31:27.50,2.41,0.21,-2.86,-80.08,460.02,467.29
2025-02-07,14:31:28.00,0.18,-0.13,-0.63,87.16,84.59,-60.49
2025-02-07,14:31:28.50,3.38,-1.80,-0.97,136.78,-109.31,-706.18
2025-02-07,14:31:29.00,0.35,-0.54,-0.43,64.94,204.41,188.48
2025-02-07,14:31:29.50,1.01,-1.08,0.17,5.55,92.53,181.95
2025-02-07,14:31:30.00,3.56,-0.54,-0.26,-104.86,-456.12,919.56
2025-02-07,14:31:30.50,0.17,-0.20,1.34,-42.72,0.37,27.28
2025-02-07,14:31:31.00,0.46,0.13,0.17,-119.57,-213.38,143.43
2025-02-07,14:31:31.50,1.52,-0.51,-0.45,-47.61,143.49,-21.36
2025-02-07,14:31:32.00,1.17,-0.52,-0.37,79.59,228.76,538.57
2025-02-07,14:31:32.50,0.16,-0.62,-0.64,-9.58,-44.80,-56.21
2025-02-07,14:31:33.00,-0.45,-0.05,-0.58,-35.95,-181.76,-167.48
2025-02-07,14:31:33.50,0.61,-1.05,-0.08,7.08,-79.41,-100.10
2025-02-07,14:31:34.00,0.16,-0.74,-0.36,7.51,-27.40,-22.95
2025-02-07,14:31:34.50,0.35,-0.81,-0.34,-1.04,-37.41,-27.95
2025-02-07,14:31:35.00,0.92,-0.59,-0.26,61.16,-206.91,-251.95
2025-02-07,14:31:35.50,1.80,0.44,0.75,364.99,81.60,802.37
2025-02-07,14:31:36.00,0.64,-0.56,-0.50,-19.10,-19.53,-74.34
2025-02-07,14:31:36.50,0.41,-0.71,-0.52,34.24,-45.78,0.79
2025-02-07,14:31:37.00,0.36,-0.79,-0.41,22.09,35.34,36.87
2025-02-07,14:31:37.50,0.57,-0.58,0.04,17.70,-152.89,-98.14
2025-02-07,14:31:38.00,0.89,-0.45,0.20,47.49,33.81,-38.64
2025-02-07,14:31:38.50,1.12,0.09,0.07,-6.16,28.99,-51.33
2025-02-07,14:31:39.00,1.00,0.15,0.07,21.06,19.29,-50.84
2025-02-07,14:31:39.50,0.89,0.20,0.12,-58.78,60.00,12.39
2025-02-07,14:31:40.00,2.67,0.65,0.60,238.22,-309.81,444.95
2025-02-07,14:31:40.50,1.12,0.89,0.53,45.23,162.48,-54.69
2025-02-07,14:31:41.00,4.00,0.83,0.06,-237.12,867.92,62.13
2025-02-07,14:31:41.50,0.90,0.24,-0.69,203.86,165.65,-221.37
2025-02-07,14:31:42.00,1.83,-0.03,0.36,568.97,-391.30,-37.11
2025-02-07,14:31:42.50,1.94,0.93,0.71,236.69,-167.79,334.96
2025-02-07,14:31:43.00,4.00,0.41,-0.25,-5.74,493.16,-682.92
2025-02-07,14:31:43.50,2.85,0.65,-0.29,-219.48,459.78,313.84
2025-02-07,14:31:44.00,0.86,-0.65,0.80,12.02,-396.18,382.51
2025-02-07,14:31:44.50,2.16,-1.48,0.27,-543.33,-895.39,-728.70
2025-02-07,14:31:45.00,0.70,-0.33,0.32,50.96,10.31,92.83
2025-02-07,14:31:45.50,0.97,-0.05,-0.31,-23.32,-10.38,-16.17
2025-02-07,14:31:46.00,0.60,-0.31,0.11,48.83,120.61,-59.94
2025-02-07,14:31:46.50,0.96,-0.07,-0.16,24.29,62.32,-11.11
2025-02-07,14:31:47.00,0.76,0.12,-0.29,-54.93,-28.44,6.47
2025-02-07,14:31:47.50,0.92,0.24,-0.35,-21.73,-5.62,-4.27
2025-02-07,14:31:48.00,0.86,0.27,-0.04,49.62,-20.26,6.47
2025-02-07,14:31:48.50,1.03,0.10,-0.21,-10.25,-19.59,6.71
2025-02-07,14:31:49.00,0.89,-0.02,-0.13,9.58,3.30,21.30
2025-02-07,14:31:49.50,0.92,-0.05,-0.22,-40.04,3.54,4.76
2025-02-07,14:31:50.00,0.89,-0.31,-0.03,-34.61,22.09,24.29
2025-02-07,14:31:50.50,0.82,-0.50,-0.07,19.29,23.80,-8.18
2025-02-07,14:31:51.00,0.94,-0.38,0.03,-4.58,3.17,-5.25
2025-02-07,14:31:51.50,0.90,-0.37,0.04,8.67,3.30,-1.89
2025-02-07,14:31:52.00,0.86,-0.24,0.02,-6.35,-34.73,-37.41
2025-02-07,14:31:52.50,1.02,-0.06,-0.21,-5.49,0.18,3.36
2025-02-07,14:31:53.00,0.99,-0.09,-0.21,7.69,0.31,3.23
2025-02-07,14:31:53.50,0.97,-0.15,-0.18,-7.63,-4.58,-3.05
2025-02-07,14:31:54.00,0.96,-0.12,-0.06,-9.64,4.15,13.18
2025-02-07,14:31:54.50,1.02,0.04,-0.07,-59.81,24.23,26.25
2025-02-07,14:31:55.00,0.94,-0.04,-0.12,-43.82,3.78,10.93
2025-02-07,14:31:55.50,1.06,-0.20,-0.14,-54.57,-23.01,11.47
2025-02-07,14:31:56.00,0.93,-0.14,-0.25,43.46,56.27,3.17
2025-02-07,14:31:56.50,4.00,0.73,0.48,15.81,-709.90,533.57
2025-02-07,14:31:57.00,3.48,0.43,0.14,-286.07,506.47,45.04
2025-02-07,14:31:57.50,1.85,0.73,-0.24,-265.81,161.19,452.09
2025-02-07,14:31:58.00,4.00,0.30,0.58,531.07,-725.95,-237.79
2025-02-07,14:31:58.50,0.98,-0.35,1.09,-175.54,240.30,-63.54
2025-02-07,14:31:59.00,0.72,-0.77,0.28,-27.16,-144.23,-207.15
2025-02-07,14:31:59.50,0.95,-0.32,0.39,-26.86,31.80,-79.22
2025-02-07,14:32:0.00,0.59,-0.38,0.82,52.49,8.18,38.88
2025-02-07,14:32:0.50,0.41,-0.51,0.55,-64.21,-62.32,-58.96
2025-02-07,14:32:1.00,0.74,-0.15,0.56,-21.24,-10.99,-36.50
2025-02-07,14:32:1.50,0.79,-0.46,0.44,-12.51,3.05,-54.14
2025-02-07,14:32:2.00,0.95,-0.30,0.53,-19.47,-5.25,-37.11
2025-02-07,14:32:2.50,0.99,-0.03,0.34,-10.38,-14.04,33.20
2025-02-07,14:32:3.00,0.76,-0.34,0.52,2.44,-23.13,-41.63
2025-02-07,14:32:3.50,4.00,0.98,-0.41,302.19,1027.22,380.74
2025-02-07,14:32:4.00,0.98,0.01,-0.57,-11.66,-436.83,281.68
2025-02-07,14:32:4.50,1.87,0.16,0.43,-12.27,344.54,215.33
2025-02-07,14:32:5.00,1.30,-0.04,0.39,61.04,-267.27,44.07
2025-02-07,14:32:5.50,4.00,1.16,-0.35,242.25,831.18,543.52
2025-02-07,14:32:6.00,0.15,0.80,-0.83,63.48,-81.12,-105.71
2025-02-07,14:32:6.50,2.48,-1.02,0.53,177.43,-175.54,-424.62
2025-02-07,14:32:7.00,1.39,-0.25,0.23,34.55,-210.02,-91.06
2025-02-07,14:32:7.50,2.74,1.21,-0.49,41.87,328.37,308.72
2025-02-07,14:32:8.00,0.98,0.28,-0.18,-49.38,116.88,289.25
2025-02-07,14:32:8.50,0.07,-0.16,0.07,155.70,-332.95,-282.29
2025-02-07,14:32:9.00,1.57,0.21,0.29,-49.26,263.85,250.18
2025-02-07,14:32:9.50,1.49,-0.04,0.37,110.47,-76.90,69.89
2025-02-07,14:32:10.00,0.92,-0.07,0.23,17.82,-23.01,14.04
2025-02-07,14:32:10.50,0.90,-0.17,0.25,-9.77,41.08,-3.72
2025-02-07,14:32:11.00,0.92,-0.13,0.32,-8.36,16.30,6.23
2025-02-07,14:32:11.50,0.95,-0.15,0.32,5.86,6.71,1.53
2025-02-07,14:32:12.00,1.15,-0.05,0.53,-172.12,-103.39,-24.23
2025-02-07,14:32:12.50,2.10,0.23,0.41,163.33,-265.01,117.68
2025-02-07,14:32:13.00,4.00,0.96,0.02,455.51,577.64,731.93
2025-02-07,14:32:13.50,1.11,2.34,0.45,108.34,43.27,115.42
2025-02-07,14:32:14.00,0.95,0.24,0.64,-177.86,-54.08,-374.69
2025-02-07,14:32:14.50,1.32,-0.43,-0.06,-145.45,226.87,-231.20
2025-02-07,14:32:15.00,0.83,-0.50,0.11,-103.45,21.79,90.09
2025-02-07,14:32:15.50,1.05,0.06,-0.33,-122.01,157.53,-0.06
2025-02-07,14:32:16.00,0.77,-0.08,-0.13,-108.46,47.18,103.82
2025-02-07,14:32:16.50,1.04,0.02,0.06,-103.39,175.11,-93.87
2025-02-07,14:32:17.00,0.87,-0.38,0.17,-141.48,109.13,111.39
2025-02-07,14:32:17.50,0.89,-0.32,-0.27,-198.18,126.04,109.31
2025-02-07,14:32:18.00,1.36,-0.01,-0.21,-230.29,75.32,-23.74
2025-02-07,14:32:18.50,0.66,-0.42,-0.47,46.33,-36.19,-44.01
2025-02-07,14:32:19.00,-0.46,-0.40,-0.63,-36.99,-73.00,138.24
2025-02-07,14:32:19.50,0.45,0.26,0.64,42.54,-394.78,95.21
2025-02-07,14:32:20.00,0.50,0.21,0.41,83.07,27.40,50.48
2025-02-07,14:32:20.50,0.68,0.55,0.22,170.10,-2.75,17.21
2025-02-07,14:32:21.00,0.90,0.46,-0.11,90.76,77.09,-50.84
2025-02-07,14:32:21.50,1.35,0.70,0.08,310.85,281.49,-234.68
2025-02-07,14:32:22.00,0.28,-1.19,0.37,190.73,-18.31,-178.71
2025-02-07,14:32:22.50,0.56,-0.06,0.93,267.94,-157.53,105.53
2025-02-07,14:32:23.00,0.71,0.43,0.44,256.04,120.30,-157.71
2025-02-07,14:32:23.50,0.67,0.04,-0.87,291.99,-51.39,-87.40
2025-02-07,14:32:24.00,0.73,-0.95,0.33,134.40,43.70,91.00
2025-02-07,14:32:24.50,-0.64,0.40,0.69,70.07,9.46,250.00
2025-02-07,14:32:25.00,0.23,0.98,-0.28,324.46,154.85,-36.32
2025-02-07,14:32:25.50,1.00,-0.26,-0.33,188.60,-0.98,-249.33
2025-02-07,14:32:26.00,0.84,-0.36,-0.36,24.05,96.56,-122.62
2025-02-07,14:32:26.50,1.35,0.01,-0.05,-52.73,-217.35,521.36
2025-02-07,14:32:27.00,0.25,-0.47,-0.85,-2.87,-104.92,157.41
2025-02-07,14:32:27.50,-0.40,-0.77,-0.67,-10.25,-157.71,99.24
2025-02-07,14:32:28.00,2.59,-0.41,-0.57,51.57,-174.80,-602.23
2025-02-07,14:32:28.50,1.80,-1.89,0.05,98.02,2.08,-491.03
2025-02-07,14:32:29.00,2.38,-0.35,1.45,5.07,-401.06,-375.98
2025-02-07,14:32:29.50,1.01,-1.08,0.93,185.79,-301.51,-78.86
2025-02-07,14:32:30.00,-0.10,-0.46,0.81,-0.79,-104.92,218.51
2025-02-07,14:32:30.50,0.90,0.28,-0.66,212.04,554.75,19.23
2025-02-07,14:32:31.00,-0.50,-0.34,-0.54,155.03,-95.28,255.74
2025-02-07,14:32:31.50,-0.01,-1.25,0.27,43.46,-54.32,147.95
2025-02-07,14:32:32.00,1.97,1.03,-0.41,-71.90,-155.33,579.65
2025-02-07,14:32:32.50,-0.73,-0.12,-0.53,60.79,-4.82,-100.59
2025-02-07,14:32:33.00,1.49,0.48,-1.01,28.20,-429.26,-138.85
2025-02-07,14:32:33.50,3.51,-0.20,0.23,-160.77,118.65,-760.31
2025-02-07,14:32:34.00,0.54,-1.22,-0.87,-27.47,-18.19,-55.60
2025-02-07,14:32:34.50,1.39,0.06,-1.11,-41.26,362.24,418.21
2025-02-07,14:32:35.00,1.70,0.16,-0.65,50.48,-277.89,-252.01
2025-02-07,14:32:35.50,1.94,-0.48,-0.67,77.64,157.59,-460.27
2025-02-07,14:32:36.00,-0.11,-0.47,-0.86,68.24,-104.25,-34.00
2025-02-07,14:32:36.50,0.73,-0.39,0.58,175.84,-82.64,110.41
2025-02-07,14:32:37.00,0.88,-0.92,0.25,-17.15,-346.74,-209.84
2025-02-07,14:32:37.50,1.11,0.14,-0.64,26.00,587.59,272.40
2025-02-07,14:32:38.00,1.12,-0.98,-0.96,-80.81,58.72,264.10
2025-02-07,14:32:38.50,1.33,0.25,-0.46,-153.20,-144.41,554.02
2025-02-07,14:32:39.00,1.34,-0.04,-0.82,-54.99,-256.35,166.02
2025-02-07,14:32:39.50,0.10,0.25,-1.21,-47.97,-244.75,204.04
2025-02-07,14:32:40.00,1.56,-0.79,-1.58,23.07,106.63,-270.69
2025-02-07,14:32:40.50,2.72,-1.25,-0.79,606.26,-325.32,-318.54
2025-02-07,14:32:41.00,0.21,-0.63,-0.08,131.47,-58.35,256.23
2025-02-07,14:32:41.50,1.67,-0.20,-0.93,106.38,491.52,68.79
2025-02-07,14:32:42.00,0.37,-0.74,-0.40,99.06,435.73,-14.16
2025-02-07,14:32:42.50,0.98,-0.75,-0.57,231.38,-101.62,-256.10
2025-02-07,14:32:43.00,0.49,-0.36,0.04,2.93,-287.29,-89.17
2025-02-07,14:32:43.50,1.57,-0.29,0.22,-74.16,490.23,128.85
2025-02-07,14:32:44.00,0.43,-0.41,-0.14,-11.90,301.39,156.01
2025-02-07,14:32:44.50,1.67,-0.02,-0.15,292.18,-350.16,-155.27
2025-02-07,14:32:45.00,0.91,-0.97,0.23,133.85,-157.10,-175.23
2025-02-07,14:32:45.50,3.36,0.61,0.28,-68.73,655.58,258.85
2025-02-07,14:32:46.00,0.72,-0.75,-0.64,-184.08,50.17,92.10
2025-02-07,14:32:46.50,2.97,0.49,-0.35,251.34,-603.21,-182.56
2025-02-07,14:32:47.00,0.76,-0.88,0.51,172.30,-151.73,-147.34
2025-02-07,14:32:47.50,4.00,0.96,0.93,-43.21,978.03,260.80
2025-02-07,14:32:48.00,2.02,0.06,-0.55,-123.96,435.85,69.34
2025-02-07,14:32:48.50,0.98,-0.59,-0.26,101.32,-16.78,-37.29
2025-02-07,14:32:49.00,4.00,0.41,0.72,194.70,-612.73,-771.06
2025-02-07,14:32:49.50,0.71,-0.98,-0.04,-19.65,113.89,-31.62
2025-02-07,14:32:50.00,0.59,-0.79,-1.11,-149.11,105.90,19.78
2025-02-07,14:32:50.50,0.43,-0.87,-0.44,56.40,-146.00,-120.85
2025-02-07,14:32:51.00,-0.16,0.68,-0.97,-26.25,99.67,154.60
2025-02-07,14:32:51.50,-0.58,0.31,-0.67,-72.02,-61.95,-60.06
2025-02-07,14:32:52.00,-0.45,1.07,-0.55,23.32,21.55,31.49
2025-02-07,14:32:52.50,-0.80,-0.09,-0.12,-65.00,-72.33,-84.96
2025-02-07,14:32:53.00,-0.76,0.35,0.50,-29.72,-1.59,68.91
2025-02-07,14:32:53.50,-0.64,0.83,0.54,-8.06,-1.46,-65.25
2025-02-07,14:32:54.00,-0.49,1.03,0.63,-8.48,-103.27,181.76
2025-02-07,14:32:54.50,-0.64,0.05,0.18,1.89,61.28,-156.74
2025-02-07,14:32:55.00,-0.36,1.12,0.73,3.78,-94.36,181.58
2025-02-07,14:32:55.50,-0.61,0.66,0.46,-0.55,8.00,-1.34
2025-02-07,14:32:56.00,-0.60,0.63,0.38,-2.38,-16.85,-0.06
2025-02-07,14:32:56.50,-0.50,0.44,0.54,25.15,-34.85,13.43
2025-02-07,14:32:57.00,-0.50,-1.12,-0.38,26.31,-389.47,-7.93
2025-02-07,14:32:57.50,-0.48,-0.89,0.01,24.54,-326.84,39.37
2025-02-07,14:32:58.00,0.00,-0.86,0.37,102.23,-486.82,117.49
2025-02-07,14:32:58.50,0.52,-0.76,0.97,115.05,-519.78,84.53
2025-02-07,14:32:59.00,0.03,-1.00,0.38,102.66,-420.23,103.82
2025-02-07,14:32:59.50,0.01,-0.64,0.44,51.39,-390.38,-7.45
2025-02-07,14:33:0.00,-0.31,-0.82,0.25,49.19,-347.53,36.62
2025-02-07,14:33:0.50,-0.90,0.05,0.04,21.85,-89.23,64.15
2025-02-07,14:33:1.00,-0.60,0.77,0.16,5.13,5.00,-2.93
2025-02-07,14:33:1.50,-0.46,0.83,0.20,64.27,-66.10,9.03
2025-02-07,14:33:2.00,-0.39,0.35,-0.18,20.63,19.96,-229.00
2025-02-07,14:33:2.50,-0.49,0.86,-0.05,10.31,-16.24,12.70
2025-02-07,14:33:3.00,-0.41,0.87,-0.10,1.16,13.67,-60.55
2025-02-07,14:33:3.50,-0.28,1.13,-0.10,-0.92,16.42,17.76
2025-02-07,14:33:4.00,-0.41,0.87,-0.02,8.79,-15.81,3.91
2025-02-07,14:33:4.50,-0.25,0.95,-0.21,4.03,-1.53,-19.90
2025-02-07,14:33:5.00,-0.63,-0.39,-0.07,5.49,7.20,182.92
2025-02-07,14:33:5.50,0.32,2.58,-0.45,28.56,-52.98,-279.60
2025-02-07,14:33:6.00,-0.94,-0.79,0.04,-10.44,-23.38,26.31
2025-02-07,14:33:6.50,-0.60,0.42,-0.52,123.17,0.55,22.77
2025-02-07,14:33:7.00,-0.53,-0.92,0.01,240.84,58.29,-35.28
2025-02-07,14:33:7.50,-0.10,-0.92,0.69,20.02,140.44,68.05
2025-02-07,14:33:8.00,-0.81,-0.43,-0.19,-3.42,85.33,130.31
2025-02-07,14:33:8.50,-0.87,0.50,-0.03,-18.19,-71.96,20.20
2025-02-07,14:33:9.00,-0.96,-0.12,0.07,-32.90,-131.41,-23.38
2025-02-07,14:33:9.50,-0.48,-0.17,0.79,-47.55,-108.64,26.43
2025-02-07,14:33:10.00,0.01,-1.03,0.31,-107.30,-23.56,13.31
2025-02-07,14:33:10.50,-0.57,-0.93,-0.30,31.25,56.03,17.21
2025-02-07,14:33:11.00,0.01,-0.73,-0.70,-196.29,-286.99,-120.30
2025-02-07,14:33:11.50,-0.21,-1.08,0.63,97.90,47.91,22.89
2025-02-07,14:33:12.00,0.40,-0.86,-0.01,-4.76,301.64,52.00
2025-02-07,14:33:12.50,2.62,-0.82,-0.08,20.45,-594.12,-395.20
2025-02-07,14:33:13.00,1.41,-0.94,1.15,1.22,567.87,-90.33
2025-02-07,14:33:13.50,-0.05,-0.73,-0.35,-116.21,-187.99,-33.94
2025-02-07,14:33:14.00,0.41,-0.84,-0.14,88.01,-123.96,-38.02
2025-02-07,14:33:14.50,0.67,-0.96,0.34,-125.55,352.36,83.80
2025-02-07,14:33:15.00,0.33,-0.92,-0.15,-19.90,33.08,-19.04
2025-02-07,14:33:15.50,0.37,-0.76,0.34,101.38,-359.13,-120.00
2025-02-07,14:33:16.00,0.71,-0.93,-0.32,72.02,-99.67,-35.58
2025-02-07,14:33:16.50,0.79,-0.97,-0.46,31.56,81.18,-61.28
2025-02-07,14:33:17.00,0.68,-0.71,-0.31,17.64,14.40,2.01
2025-02-07,14:33:17.50,0.72,-0.49,-0.59,92.22,-235.23,13.79
2025-02-07,14:33:18.00,1.53,-1.34,1.08,153.87,-323.24,-90.33
2025-02-07,14:33:18.50,1.17,-0.61,1.04,-10.93,443.36,-1.65
2025-02-07,14:33:19.00,2.82,-0.71,-0.47,-170.90,482.30,-348.27
2025-02-07,14:33:19.50,1.02,-1.01,-1.08,-112.12,355.10,35.40
2025-02-07,14:33:20.00,2.62,-0.85,-1.28,-107.18,621.58,-35.95
2025-02-07,14:33:20.50,0.73,0.05,-0.94,-74.22,-413.57,-204.59
2025-02-07,14:33:21.00,1.57,-0.98,0.13,95.09,-253.54,-405.21
2025-02-07,14:33:21.50,1.65,-0.87,0.23,-136.72,402.04,294.80
2025-02-07,14:33:22.00,1.54,-0.78,-1.07,-95.09,477.97,14.65
2025-02-07,14:33:22.50,0.59,-0.50,-0.44,-0.37,-299.74,-155.58
2025-02-07,14:33:23.00,0.65,-1.04,-0.49,26.73,-271.61,-232.42
2025-02-07,14:33:23.50,0.49,-0.94,0.06,36.99,32.53,188.29
2025-02-07,14:33:24.00,2.77,-0.93,-0.90,-244.51,559.57,344.48
2025-02-07,14:33:24.50,0.44,-0.53,-0.62,52.12,-74.58,-60.18
2025-02-07,14:33:25.00,2.82,-0.37,-0.71,20.75,-556.64,-525.15
2025-02-07,14:33:25.50,0.73,-0.71,-0.07,-19.29,109.13,188.48
2025-02-07,14:33:26.00,2.61,-1.27,-0.46,-74.22,673.95,217.47
2025-02-07,14:33:26.50,0.87,-0.41,-0.31,29.85,-180.05,-55.48
2025-02-07,14:33:27.00,0.47,-0.74,-0.75,-24.84,-99.49,18.07
2025-02-07,14:33:27.50,0.21,1.82,0.06,-31.74,18.49,72.75
2025-02-07,14:33:28.00,-0.27,0.52,-1.00,8.00,51.27,37.72
2025-02-07,14:33:28.50,-0.21,0.71,-0.47,-11.90,-13.31,28.08
2025-02-07,14:33:29.00,0.09,0.89,-0.50,9.16,29.66,2.38
2025-02-07,14:33:29.50,0.24,1.07,-0.60,-3.48,-39.31,-25.82
2025-02-07,14:33:30.00,-0.00,0.67,-0.65,57.74,-7.32,9.03
2025-02-07,14:33:30.50,-0.48,0.73,-0.46,-41.87,-18.31,-16.24
2025-02-07,14:33:31.00,0.29,0.58,-0.70,94.12,45.10,53.34
2025-02-07,14:33:31.50,0.94,-0.18,-0.80,61.10,74.16,-79.35
2025-02-07,14:33:32.00,0.60,0.06,-0.94,9.89,28.56,-56.40
2025-02-07,14:33:32.50,0.65,0.06,-0.75,-23.93,3.05,45.17
2025-02-07,14:33:33.00,0.53,-0.01,-0.79,-4.27,-1.04,12.45
2025-02-07,14:33:33.50,0.57,-0.01,-0.82,-2.32,3.72,8.73
2025-02-07,14:33:34.00,0.58,-0.05,-0.77,4.94,5.00,6.29
2025-02-07,14:33:34.50,0.62,-0.07,-0.77,2.14,1.59,1.83
2025-02-07,14:33:35.00,0.59,-0.07,-0.78,-0.61,1.34,-3.48
2025-02-07,14:33:35.50,0.62,-0.06,-0.77,2.01,0.79,2.81
2025-02-07,14:33:36.00,0.63,-0.06,-0.76,0.85,-1.46,2.62
2025-02-07,14:33:36.50,0.65,-0.06,-0.77,0.67,2.01,-7.08
2025-02-07,14:33:37.00,0.63,-0.07,-0.77,-0.37,1.71,-0.37
2025-02-07,14:33:37.50,0.62,-0.07,-0.76,0.43,2.32,-1.71
2025-02-07,14:33:38.00,0.64,-0.07,-0.75,-0.98,-0.85,-1.71
2025-02-07,14:33:38.50,0.66,-0.05,-0.75,-3.48,-3.97,1.04
2025-02-07,14:33:39.00,0.58,-0.01,-0.81,-2.69,0.31,6.96
2025-02-07,14:33:39.50,0.67,-0.01,-0.79,-15.87,9.95,-22.34
2025-02-07,14:33:40.00,0.70,0.03,-0.75,-13.55,13.37,44.49
2025-02-07,14:33:40.50,0.62,-0.02,-0.82,9.34,4.27,-9.34
2025-02-07,14:33:41.00,0.55,-0.12,-0.82,8.91,-11.47,-27.89
2025-02-07,14:33:41.50,0.61,-0.05,-0.79,-10.74,13.24,26.67
2025-02-07,14:33:42.00,0.71,-0.10,-0.70,8.91,0.37,-3.05
2025-02-07,14:33:42.50,0.66,-0.13,-0.72,2.44,-0.61,-2.01
2025-02-07,14:33:43.00,0.68,-0.14,-0.72,-0.37,-0.06,-1.59
2025-02-07,14:33:43.50,0.69,-0.13,-0.72,-0.79,2.20,-0.73
2025-02-07,14:33:44.00,0.69,-0.13,-0.70,0.12,-2.20,-1.46
2025-02-07,14:33:44.50,0.68,-0.14,-0.71,0.67,-1.10,-0.43
2025-02-07,14:33:45.00,0.70,-0.14,-0.70,0.49,-1.46,-0.92
2025-02-07,14:33:45.50,0.68,-0.14,-0.70,0.61,0.85,2.08
2025-02-07,14:33:46.00,0.69,-0.14,-0.70,0.61,2.32,2.87
2025-02-07,14:33:46.50,0.69,-0.15,-0.68,0.06,-1.04,0.73
2025-02-07,14:33:47.00,0.67,-0.14,-0.72,10.93,-3.78,-0.06
2025-02-07,14:33:47.50,0.71,-0.32,-0.76,-95.03,-38.45,-7.87
2025-02-07,14:33:48.00,0.89,-0.42,-0.69,77.51,50.78,-76.29
2025-02-07,14:33:48.50,2.10,0.15,-0.13,405.15,-426.45,111.39
2025-02-07,14:33:49.00,1.10,-0.35,0.97,123.17,-150.27,-41.99
2025-02-07,14:33:49.50,4.00,0.54,0.26,-154.66,779.60,443.30
2025-02-07,14:33:50.00,1.39,0.41,-0.65,123.47,49.87,-342.29
2025-02-07,14:33:50.50,0.96,-0.91,-0.67,-14.16,199.34,-182.37
2025-02-07,14:33:51.00,0.75,-0.30,-0.68,42.54,46.14,-73.24
2025-02-07,14:33:51.50,0.47,0.04,-0.40,59.08,-102.29,90.58
2025-02-07,14:33:52.00,0.09,-0.43,-0.72,-0.55,-18.49,42.42
2025-02-07,14:33:52.50,-0.69,-0.65,-0.48,-14.83,-49.68,52.12
2025-02-07,14:33:53.00,-0.81,0.48,-0.06,-41.87,-100.40,99.55
2025-02-07,14:33:53.50,-0.37,0.64,0.65,-58.11,-16.60,-47.18
2025-02-07,14:33:54.00,-0.20,0.43,0.93,-26.73,-18.49,-19.35
2025-02-07,14:33:54.50,0.01,-0.01,1.03,-29.11,-15.56,-21.79
2025-02-07,14:33:55.00,0.25,-0.28,0.95,-19.71,-7.57,-7.87
2025-02-07,14:33:55.50,0.05,-0.22,1.10,55.54,75.50,-15.81
2025-02-07,14:33:56.00,-0.25,0.53,0.89,59.27,36.38,-12.27
2025-02-07,14:33:56.50,-0.34,0.88,0.07,54.08,66.28,34.18
2025-02-07,14:33:57.00,-0.35,0.84,-0.15,15.38,53.89,-5.55
2025-02-07,14:33:57.50,-0.38,0.92,-0.14,0.85,20.75,-3.60
2025-02-07,14:33:58.00,-0.50,0.69,-0.18,47.00,14.83,-108.95
2025-02-07,14:33:58.50,0.69,-0.36,-1.06,11.35,-132.45,155.70
2025-02-07,14:33:59.00,0.26,-0.41,-0.92,10.13,7.57,9.89
2025-02-07,14:33:59.50,0.18,-0.35,-1.12,-0.85,-20.08,28.32
2025-02-07,14:34:0.00,0.09,-0.29,-0.95,3.11,3.60,15.56
2025-02-07,14:34:0.50,0.10,-0.27,-0.89,0.31,-1.22,1.10
2025-02-07,14:34:1.00,0.49,-0.34,-0.92,38.09,62.62,-39.37
2025-02-07,14:34:1.50,-0.28,0.21,0.19,3.23,-307.80,242.86
2025-02-07,14:34:2.00,-0.39,0.83,-0.07,46.51,36.93,12.82
2025-02-07,14:34:2.50,0.09,0.99,-0.32,53.41,275.45,32.41
2025-02-07,14:34:3.00,0.15,0.75,-0.64,1.65,-13.00,-9.09
2025-02-07,14:34:3.50,0.11,0.57,-0.71,-4.33,4.52,-17.58
2025-02-07,14:34:4.00,0.04,0.60,-0.76,7.57,-9.77,8.67
2025-02-07,14:34:4.50,0.04,0.58,-0.77,1.28,-10.25,-2.69
2025-02-07,14:34:5.00,0.07,0.64,-0.87,-14.59,-7.93,59.63
2025-02-07,14:34:5.50,0.14,0.71,-0.76,0.37,7.93,4.88
2025-02-07,14:34:6.00,0.15,0.71,-0.64,-2.81,-53.96,7.57
2025-02-07,14:34:6.50,0.01,0.74,-0.64,13.31,4.76,14.77
2025-02-07,14:34:7.00,0.30,0.56,-0.85,11.78,-8.61,44.74
2025-02-07,14:34:7.50,0.45,0.37,-0.78,-23.25,-33.26,-15.38
2025-02-07,14:34:8.00,1.25,0.89,-0.68,84.53,-49.38,-44.92
2025-02-07,14:34:8.50,0.71,0.30,-0.37,28.87,132.87,339.66
2025-02-07,14:34:9.00,0.28,-0.64,-0.64,-206.54,27.65,-70.56
2025-02-07,14:34:9.50,1.86,0.01,0.28,63.84,-454.96,554.08
2025-02-07,14:34:10.00,1.99,0.34,0.47,90.88,-281.56,-90.39
2025-02-07,14:34:10.50,4.00,0.55,0.55,514.47,-587.71,446.11
2025-02-07,14:34:11.00,1.84,0.43,0.48,-145.69,164.98,-383.97
2025-02-07,14:34:11.50,4.00,0.46,0.25,-637.02,659.18,424.44
2025-02-07,14:34:12.00,1.80,0.43,-0.86,351.07,-227.36,-216.31
2025-02-07,14:34:12.50,3.98,0.11,0.96,494.63,-602.66,-50.42
2025-02-07,14:34:13.00,3.11,0.23,0.23,-196.72,521.91,-0.12
2025-02-07,14:34:13.50,4.00,0.45,0.06,-449.83,406.13,586.49
2025-02-07,14:34:14.00,1.05,0.31,-0.89,266.48,30.40,-131.53
2025-02-07,14:34:14.50,1.89,-0.26,0.32,347.53,-164.49,-345.76
2025-02-07,14:34:15.00,1.08,-0.24,-0.24,-198.43,173.22,39.86
2025-02-07,14:34:15.50,1.04,-0.32,-0.26,47.85,-30.58,-25.76
2025-02-07,14:34:16.00,0.90,-0.32,-0.29,36.62,15.01,9.28
2025-02-07,14:34:16.50,0.91,-0.29,-0.15,-6.04,34.85,8.24
2025-02-07,14:34:17.00,0.81,-0.31,-0.14,-6.65,11.66,-6.23
2025-02-07,14:34:17.50,0.63,-0.33,-0.10,-4.88,11.72,-4.27
2025-02-07,14:34:18.00,0.96,-0.29,-0.21,-5.68,-14.95,9.70
2025-02-07,14:34:18.50,0.98,-0.09,-0.22,7.81,2.87,6.16
2025-02-07,14:34:19.00,1.51,-0.36,0.07,11.11,36.38,-39.67
2025-02-07,14:34:19.50,0.97,-0.34,-0.05,-24.05,-7.75,-9.89
2025-02-07,14:34:20.00,0.84,-0.50,0.01,22.77,7.75,9.58
2025-02-07,14:34:20.50,0.91,-0.56,-0.14,-29.05,-10.38,-20.02
2025-02-07,14:34:21.00,0.90,-0.46,-0.16,-5.55,12.70,8.48
2025-02-07,14:34:21.50,0.73,-0.53,-0.19,-16.36,-3.78,-18.68
2025-02-07,14:34:22.00,1.09,-0.46,-0.31,-74.10,2.08,63.05
2025-02-07,14:34:22.50,0.61,0.97,0.48,-6.04,-144.65,401.06
2025-02-07,14:34:23.00,0.56,1.56,-0.14,163.15,-108.76,-284.18
2025-02-07,14:34:23.50,3.30,-0.14,-0.21,-52.61,-409.00,584.72
2025-02-07,14:34:24.00,1.70,-0.74,0.58,207.40,-293.15,-163.76
2025-02-07,14:34:24.50,1.20,-0.86,0.66,-150.39,-19.35,-200.81
2025-02-07,14:34:25.00,1.61,-0.48,0.29,-280.94,451.42,-32.41
2025-02-07,14:34:25.50,1.22,-0.26,-0.68,-161.50,316.89,-88.01
2025-02-07,14:34:26.00,3.78,0.30,0.14,273.32,-598.21,-412.54
2025-02-07,14:34:26.50,1.78,-0.12,0.81,102.17,-360.29,-198.06
2025-02-07,14:34:27.00,0.83,-0.52,0.13,-134.89,54.75,-19.78
2025-02-07,14:34:27.50,2.55,0.18,-0.15,-288.88,506.47,72.20
2025-02-07,14:34:28.00,1.09,-0.43,-0.41,-14.53,16.97,-85.45
2025-02-07,14:34:28.50,0.95,-0.30,-0.43,99.61,-126.40,-66.71
2025-02-07,14:34:29.00,0.71,-0.38,-0.64,-2.87,-0.92,5.25
2025-02-07,14:34:29.50,0.50,-0.63,-0.51,113.40,-111.45,-68.73
2025-02-07,14:34:30.00,0.41,-0.93,-0.19,55.91,-43.27,-15.75
2025-02-07,14:34:30.50,0.53,-0.81,0.07,91.25,-67.32,-28.50
2025-02-07,14:34:31.00,0.88,-0.47,0.31,50.11,-28.26,-34.48
2025-02-07,14:34:31.50,0.90,-0.38,0.13,18.19,-55.85,-50.17
2025-02-07,14:34:32.00,3.56,-0.91,0.24,-82.28,-92.77,968.32
2025-02-07,14:34:32.50,4.00,0.21,0.28,499.15,-774.66,95.89
2025-02-07,14:34:33.00,-0.15,-0.15,1.72,153.99,-252.44,296.02
